sys_datetime,unix_timestamp,raw_accel_x_lsb,raw_accel_y_lsb,raw_accel_z_lsb,raw_gyro_x_lsb,raw_gyro_y_lsb,raw_gyro_z_lsb,imu_type,imu_status_hex,veh_lat_acc_ms2,veh_long_acc_ms2,veh_vert_acc_ms2,veh_pitch_rate_degs,veh_roll_rate_degs,veh_yaw_rate_degs
2026-05-22 16:29:35.966228,1779481775.966228,,,,,,,,,0.0,0.0,0.0,0.0,0.0,0.0
2026-05-22 16:29:35.967791,1779481775.967791,-363306,-160489,164359275,61321,66438,-34915,61,eaebfe00,0.0,0.0,0.0,0.0,0.0,0.0
2026-05-22 16:29:35.969599,1779481775.969599,-363306,-160489,164359275,61321,66438,-34915,61,eaebfe00,0.0,0.0,0.0,0.0,0.0,0.0
2026-05-22 16:29:35.970976,1779481775.970976,-359276,-154837,164387047,61339,57186,-40794,61,eaebfe00,0.0,0.0,0.0,0.0,0.0,0.0
2026-05-22 16:29:35.972342,1779481775.972342,-359276,-154837,164387047,61339,57186,-40794,61,eaebfe00,0.0,0.0,0.0,0.0,0.0,0.0
2026-05-22 16:29:35.973212,1779481775.973212,-364907,-152361,164408107,43239,67059,-10349,61,eaebfe00,0.0,0.0,0.0,0.0,0.0,0.0
2026-05-22 16:29:35.975983,1779481775.975983,-364907,-152361,164408107,43239,67059,-10349,61,eaebfe00,0.0,0.0,0.0,0.0,0.0,0.0
2026-05-22 16:29:35.977594,1779481775.977594,-367769,-104553,164417474,43942,58320,-24453,61,eaebfe00,0.0,0.0,0.0,0.0,0.0,0.0
2026-05-22 16:29:35.978324,1779481775.978324,-367769,-104553,164417474,43942,58320,-24453,61,eaebfe00,0.0,0.0,0.0,0.0,0.0,0.0
2026-05-22 16:29:35.978891,1779481775.978891,-310926,-104831,164454972,44295,69537,-30575,61,eaecfe00,0.0,0.0,0.0,0.0,0.0,0.0
2026-05-22 16:29:35.979584,1779481775.979584,-310926,-104831,164454972,44295,69537,-30575,61,eaecfe00,0.0,0.0,0.0,0.0,0.0,0.0
2026-05-22 16:29:35.980165,1779481775.980165,-272017,-81582,164415263,47978,38971,-52943,61,eaebfe00,0.0,0.0,0.0,0.0,0.0,0.0
2026-05-22 16:29:35.980932,1779481775.980932,-272017,-81582,164415263,47978,38971,-52943,61,eaebfe00,0.0,0.0,0.0,0.0,0.0,0.0
2026-05-22 16:29:35.981624,1779481775.981624,-266570,-93622,164413960,65536,64134,-67720,61,eaebfe00,0.0,0.0,0.0,0.0,0.0,0.0
2026-05-22 16:29:35.982430,1779481775.982430,-266570,-93622,164413960,65536,64134,-67720,61,eaebfe00,0.0,0.0,0.0,0.0,0.0,0.0
2026-05-22 16:29:35.983079,1779481775.983079,-299039,-105749,164377061,69784,65174,-46234,61,eaebfe00,0.0,0.0,0.0,0.0,0.0,0.0
2026-05-22 16:29:35.983881,1779481775.983881,-299039,-105749,164377061,69784,65174,-46234,61,eaebfe00,0.0,0.0,0.0,0.0,0.0,0.0
2026-05-22 16:29:35.984543,1779481775.984543,-322696,-118591,164361642,61011,77200,-34679,61,eaebfe00,0.0,0.0,0.0,0.0,0.0,0.0
2026-05-22 16:29:35.985347,1779481775.985347,-322696,-118591,164361642,61011,77200,-34679,61,eaebfe00,0.0,0.0,0.0,0.0,0.0,0.0
2026-05-22 16:29:35.985995,1779481775.985995,-339893,-132321,164362208,59017,63761,-29093,61,eaebfe00,0.0,0.0,0.0,0.0,0.0,0.0
2026-05-22 16:29:35.986816,1779481775.986816,-339893,-132321,164362208,59017,63761,-29093,61,eaebfe00,0.0,0.0,0.0,0.0,0.0,0.0
2026-05-22 16:29:35.987462,1779481775.987462,-312533,-165414,164361503,44342,40660,-39145,61,eaecfe00,0.0,0.0,0.0,0.0,0.0,0.0
2026-05-22 16:29:35.988266,1779481775.988266,-312533,-165414,164361503,44342,40660,-39145,61,eaecfe00,0.0,0.0,0.0,0.0,0.0,0.0
2026-05-22 16:29:35.988920,1779481775.988920,-304193,-128863,164430612,50178,30451,-44145,61,eaecfe00,0.0,0.0,0.0,0.0,0.0,0.0
2026-05-22 16:29:35.989750,1779481775.989750,-304193,-128863,164430612,50178,30451,-44145,61,eaecfe00,0.0,0.0,0.0,0.0,0.0,0.0
2026-05-22 16:29:35.990470,1779481775.990470,-276488,-131995,164432713,68164,34865,-58007,61,eaebfe00,0.0,0.0,0.0,0.0,0.0,0.0
2026-05-22 16:29:35.992282,1779481775.992282,-276488,-131995,164432713,68164,34865,-58007,61,eaebfe00,0.0,0.0,0.0,0.0,0.0,0.0
2026-05-22 16:29:35.993000,1779481775.993000,-312825,-127725,164431910,86020,38593,-49475,61,eaebfe00,0.0,0.0,0.0,0.0,0.0,0.0
2026-05-22 16:29:35.993816,1779481775.993816,-312825,-127725,164431910,86020,38593,-49475,61,eaebfe00,0.0,0.0,0.0,0.0,0.0,0.0
2026-05-22 16:29:35.994485,1779481775.994485,-284263,-161359,164465488,119224,73040,-49356,61,eaebfe00,0.0,0.0,0.0,0.0,0.0,0.0
2026-05-22 16:29:35.995300,1779481775.995300,-284263,-161359,164465488,119224,73040,-49356,61,eaebfe00,0.0,0.0,0.0,0.0,0.0,0.0
2026-05-22 16:29:35.995960,1779481775.995960,-295311,-169243,164446508,116887,72734,-34896,61,eaebfe00,0.0,0.0,0.0,0.0,0.0,0.0
2026-05-22 16:29:35.996792,1779481775.996792,-295311,-169243,164446508,116887,72734,-34896,61,eaebfe00,0.0,0.0,0.0,0.0,0.0,0.0
2026-05-22 16:29:35.997464,1779481775.997464,-312068,-148099,164446886,106237,72766,-31766,61,eaebfe00,0.0,0.0,0.0,0.0,0.0,0.0
2026-05-22 16:29:35.998328,1779481775.998328,-312068,-148099,164446886,106237,72766,-31766,61,eaebfe00,0.0,0.0,0.0,0.0,0.0,0.0
2026-05-22 16:29:35.998979,1779481775.998979,-313522,-152673,164392570,82692,62502,-21244,61,eaebfe00,0.0,0.0,0.0,0.0,0.0,0.0
2026-05-22 16:29:35.999779,1779481775.999779,-313522,-152673,164392570,82692,62502,-21244,61,eaebfe00,0.0,0.0,0.0,0.0,0.0,0.0
2026-05-22 16:29:36.000423,1779481776.000423,-306687,-154985,164337211,66598,59818,-16926,61,eaebfe00,0.0,0.0,0.0,0.0,0.0,0.0
2026-05-22 16:29:36.001220,1779481776.001220,-306687,-154985,164337211,66598,59818,-16926,61,eaebfe00,0.0,0.0,0.0,0.0,0.0,0.0
2026-05-22 16:29:36.001862,1779481776.001862,-291097,-214533,164343526,64507,50119,-21359,61,eaebfe00,0.0,0.0,0.0,0.0,0.0,0.0
2026-05-22 16:29:36.002665,1779481776.002665,-291097,-214533,164343526,64507,50119,-21359,61,eaebfe00,0.0,0.0,0.0,0.0,0.0,0.0
2026-05-22 16:29:36.003320,1779481776.003320,-280046,-218084,164342460,63109,50749,-34653,61,eaebfe00,0.0,0.0,0.0,0.0,0.0,0.0
2026-05-22 16:29:36.004118,1779481776.004118,-280046,-218084,164342460,63109,50749,-34653,61,eaebfe00,0.0,0.0,0.0,0.0,0.0,0.0
2026-05-22 16:29:36.004758,1779481776.004758,-300129,-157642,164433789,69040,44418,-36305,61,eaebfe00,0.0,0.0,0.0,0.0,0.0,0.0
2026-05-22 16:29:36.005564,1779481776.005564,-300129,-157642,164433789,69040,44418,-36305,61,eaebfe00,0.0,0.0,0.0,0.0,0.0,0.0
2026-05-22 16:29:36.006195,1779481776.006195,-264221,-132255,164424888,64850,33092,-27166,61,eaebfe00,0.0,0.0,0.0,0.0,0.0,0.0
2026-05-22 16:29:36.007985,1779481776.007985,-264221,-132255,164424888,64850,33092,-27166,61,eaebfe00,0.0,0.0,0.0,0.0,0.0,0.0
2026-05-22 16:29:36.008645,1779481776.008645,-244701,-93836,164435871,76108,37603,-9721,61,eaebfe00,0.0,0.0,0.0,0.0,0.0,0.0
2026-05-22 16:29:36.009467,1779481776.009467,-244701,-93836,164435871,76108,37603,-9721,61,eaebfe00,0.0,0.0,0.0,0.0,0.0,0.0
2026-05-22 16:29:36.010113,1779481776.010113,-233488,-119617,164406730,72390,21292,-15532,61,eaebfe00,0.0,0.0,0.0,0.0,0.0,0.0
2026-05-22 16:29:36.010980,1779481776.010980,-233488,-119617,164406730,72390,21292,-15532,61,eaebfe00,0.0,0.0,0.0,0.0,0.0,0.0
2026-05-22 16:29:36.011677,1779481776.011677,-239352,-124585,164401995,59287,34411,-24627,61,eaebfe00,0.0,0.0,0.0,0.0,0.0,0.0
2026-05-22 16:29:36.012609,1779481776.012609,-239352,-124585,164401995,59287,34411,-24627,61,eaebfe00,0.0,0.0,0.0,0.0,0.0,0.0
2026-05-22 16:29:36.013348,1779481776.013348,-226510,-128940,164400167,45568,30226,-63193,61,eaebfe00,0.0,0.0,0.0,0.0,0.0,0.0
2026-05-22 16:29:36.014234,1779481776.014234,-226510,-128940,164400167,45568,30226,-63193,61,eaebfe00,0.0,0.0,0.0,0.0,0.0,0.0
2026-05-22 16:29:36.014951,1779481776.014951,-231773,-129056,164433736,45242,12632,-67590,61,eaecfe00,0.0,0.0,0.0,0.0,0.0,0.0
2026-05-22 16:29:36.015912,1779481776.015912,-231773,-129056,164433736,45242,12632,-67590,61,eaecfe00,0.0,0.0,0.0,0.0,0.0,0.0
2026-05-22 16:29:36.016871,1779481776.016871,-275352,-130319,164444225,76491,34490,-59143,61,eaebfe00,0.0,0.0,0.0,0.0,0.0,0.0
2026-05-22 16:29:36.017920,1779481776.017920,-275352,-130319,164444225,76491,34490,-59143,61,eaebfe00,0.0,0.0,0.0,0.0,0.0,0.0
2026-05-22 16:29:36.018677,1779481776.018677,-339368,-126690,164449073,85465,46599,-21343,61,eaebfe00,0.0,0.0,0.0,0.0,0.0,0.0
2026-05-22 16:29:36.019543,1779481776.019543,-339368,-126690,164449073,85465,46599,-21343,61,eaebfe00,0.0,0.0,0.0,0.0,0.0,0.0
2026-05-22 16:29:36.020211,1779481776.020211,-347386,-113585,164447387,69623,61347,-12878,61,eaebfe00,0.0,0.0,0.0,0.0,0.0,0.0
2026-05-22 16:29:36.021691,1779481776.021691,-347386,-113585,164447387,69623,61347,-12878,61,eaebfe00,0.0,0.0,0.0,0.0,0.0,0.0
2026-05-22 16:29:36.022860,1779481776.022860,-339136,-96768,164422846,71168,69303,-4032,61,eaecfe00,0.0,0.0,0.0,0.0,0.0,0.0
2026-05-22 16:29:36.023754,1779481776.023754,-339136,-96768,164422846,71168,69303,-4032,61,eaecfe00,0.0,0.0,0.0,0.0,0.0,0.0
2026-05-22 16:29:36.024575,1779481776.024575,-310195,-118517,164373093,42824,59649,-18505,61,eaebfe00,0.0,0.0,0.0,0.0,0.0,0.0
2026-05-22 16:29:36.026632,1779481776.026632,-310195,-118517,164373093,42824,59649,-18505,61,eaebfe00,0.0,0.0,0.0,0.0,0.0,0.0
2026-05-22 16:29:36.027337,1779481776.027337,-306060,-167635,164359212,70708,68089,-19815,61,eaebfe00,0.0,0.0,0.0,0.0,0.0,0.0
2026-05-22 16:29:36.028167,1779481776.028167,-306060,-167635,164359212,70708,68089,-19815,61,eaebfe00,0.0,0.0,0.0,0.0,0.0,0.0
2026-05-22 16:29:36.028932,1779481776.028932,-306618,-176030,164388986,58261,43828,-36622,61,eaebfe00,0.0,0.0,0.0,0.0,0.0,0.0
2026-05-22 16:29:36.029779,1779481776.029779,-306618,-176030,164388986,58261,43828,-36622,61,eaebfe00,0.0,0.0,0.0,0.0,0.0,0.0
2026-05-22 16:29:36.030464,1779481776.030464,-321988,-195305,164406051,62056,44912,-23072,61,eaebfe00,0.0,0.0,0.0,0.0,0.0,0.0
2026-05-22 16:29:36.031704,1779481776.031704,-321988,-195305,164406051,62056,44912,-23072,61,eaebfe00,0.0,0.0,0.0,0.0,0.0,0.0
2026-05-22 16:29:36.032999,1779481776.032999,-333322,-161828,164378890,56033,18005,-23005,61,eaecfe00,0.0,0.0,0.0,0.0,0.0,0.0
2026-05-22 16:29:36.033941,1779481776.033941,-333322,-161828,164378890,56033,18005,-23005,61,eaecfe00,0.0,0.0,0.0,0.0,0.0,0.0
2026-05-22 16:29:36.034658,1779481776.034658,-338809,-199009,164359074,39372,34421,-23853,61,eaebfe00,0.0,0.0,0.0,0.0,0.0,0.0
2026-05-22 16:29:36.035555,1779481776.035555,-338809,-199009,164359074,39372,34421,-23853,61,eaebfe00,0.0,0.0,0.0,0.0,0.0,0.0
2026-05-22 16:29:36.036274,1779481776.036274,-291400,-187015,164340076,31557,17993,-34432,61,eaecfe00,0.0,0.0,0.0,0.0,0.0,0.0
2026-05-22 16:29:36.037152,1779481776.037152,-291400,-187015,164340076,31557,17993,-34432,61,eaecfe00,0.0,0.0,0.0,0.0,0.0,0.0
2026-05-22 16:29:36.037839,1779481776.037839,-320457,-197485,164375501,50814,42203,-39303,61,eaecfe00,0.0,0.0,0.0,0.0,0.0,0.0
2026-05-22 16:29:36.038880,1779481776.038880,-320457,-197485,164375501,50814,42203,-39303,61,eaecfe00,0.0,0.0,0.0,0.0,0.0,0.0
2026-05-22 16:29:36.040033,1779481776.040033,-311755,-166278,164400044,63616,31934,-45400,61,eaebfe00,0.0,0.0,0.0,0.0,0.0,0.0
2026-05-22 16:29:36.041192,1779481776.041192,-311755,-166278,164400044,63616,31934,-45400,61,eaebfe00,0.0,0.0,0.0,0.0,0.0,0.0
2026-05-22 16:29:36.042007,1779481776.042007,-328524,-131373,164427480,47297,52699,-48954,61,eaebfe00,0.0,0.0,0.0,0.0,0.0,0.0
2026-05-22 16:29:36.043070,1779481776.043070,-328524,-131373,164427480,47297,52699,-48954,61,eaebfe00,0.0,0.0,0.0,0.0,0.0,0.0
2026-05-22 16:29:36.043753,1779481776.043753,-306812,-142562,164440361,61606,36117,-35868,61,eaebfe00,0.0,0.0,0.0,0.0,0.0,0.0
2026-05-22 16:29:36.045571,1779481776.045571,-306812,-142562,164440361,61606,36117,-35868,61,eaebfe00,0.0,0.0,0.0,0.0,0.0,0.0
2026-05-22 16:29:36.046229,1779481776.046229,-316458,-153821,164436386,47142,56007,-29838,61,eaebfe00,0.0,0.0,0.0,0.0,0.0,0.0
2026-05-22 16:29:36.047060,1779481776.047060,-316458,-153821,164436386,47142,56007,-29838,61,eaebfe00,0.0,0.0,0.0,0.0,0.0,0.0
2026-05-22 16:29:36.047743,1779481776.047743,-293146,-171995,164431724,50102,63234,-6373,61,eaebfe00,0.0,0.0,0.0,0.0,0.0,0.0
2026-05-22 16:29:36.048571,1779481776.048571,-293146,-171995,164431724,50102,63234,-6373,61,eaebfe00,0.0,0.0,0.0,0.0,0.0,0.0
2026-05-22 16:29:36.049252,1779481776.049252,-310342,-173517,164395267,27031,76193,-18249,61,eaebfe00,0.0,0.0,0.0,0.0,0.0,0.0
2026-05-22 16:29:36.050122,1779481776.050122,-310342,-173517,164395267,27031,76193,-18249,61,eaebfe00,0.0,0.0,0.0,0.0,0.0,0.0
2026-05-22 16:29:36.050800,1779481776.050800,-280923,-154749,164376374,36681,67517,-43508,61,eaebfe00,0.0,0.0,0.0,0.0,0.0,0.0
2026-05-22 16:29:36.051737,1779481776.051737,-280923,-154749,164376374,36681,67517,-43508,61,eaebfe00,0.0,0.0,0.0,0.0,0.0,0.0
2026-05-22 16:29:36.052601,1779481776.052601,-303661,-135236,164357256,57040,59776,-44241,61,eaebfe00,0.0,0.0,0.0,0.0,0.0,0.0
2026-05-22 16:29:36.053590,1779481776.053590,-303661,-135236,164357256,57040,59776,-44241,61,eaebfe00,0.0,0.0,0.0,0.0,0.0,0.0
2026-05-22 16:29:36.054285,1779481776.054285,-280058,-114080,164357923,66998,38911,-42331,61,eaebfe00,0.0,0.0,0.0,0.0,0.0,0.0
2026-05-22 16:29:36.055199,1779481776.055199,-280058,-114080,164357923,66998,38911,-42331,61,eaebfe00,0.0,0.0,0.0,0.0,0.0,0.0
2026-05-22 16:29:36.056225,1779481776.056225,-277748,-141804,164378135,69482,26718,-15989,61,eaebfe00,0.0,0.0,0.0,0.0,0.0,0.0
2026-05-22 16:29:36.057335,1779481776.057335,-277748,-141804,164378135,69482,26718,-15989,61,eaebfe00,0.0,0.0,0.0,0.0,0.0,0.0
2026-05-22 16:29:36.058177,1779481776.058177,-278267,-105731,164376453,68918,30706,-51643,61,eaebfe00,0.0,0.0,0.0,0.0,0.0,0.0
2026-05-22 16:29:36.059169,1779481776.059169,-278267,-105731,164376453,68918,30706,-51643,61,eaebfe00,0.0,0.0,0.0,0.0,0.0,0.0
2026-05-22 16:29:36.060062,1779481776.060062,-304207,-126452,164399329,46126,19492,-42429,61,eaebfe00,0.0,0.0,0.0,0.0,0.0,0.0
2026-05-22 16:29:36.060993,1779481776.060993,-304207,-126452,164399329,46126,19492,-42429,61,eaebfe00,0.0,0.0,0.0,0.0,0.0,0.0
2026-05-22 16:29:36.061649,1779481776.061649,-291250,-102191,164391297,5998,40260,-39486,61,eaebfe00,0.0,0.0,0.0,0.0,0.0,0.0
2026-05-22 16:29:36.063374,1779481776.063374,-291250,-102191,164391297,5998,40260,-39486,61,eaebfe00,0.0,0.0,0.0,0.0,0.0,0.0
2026-05-22 16:29:36.064385,1779481776.064385,-295068,-135330,164414032,-23814,8410,-22018,61,eaebfe00,0.0,0.0,0.0,0.0,0.0,0.0
2026-05-22 16:29:36.065248,1779481776.065248,-295068,-135330,164414032,-23814,8410,-22018,61,eaebfe00,0.0,0.0,0.0,0.0,0.0,0.0
2026-05-22 16:29:36.065918,1779481776.065918,-301452,-131718,164404559,3072,38143,-32318,61,eaebfe00,0.0,0.0,0.0,0.0,0.0,0.0
2026-05-22 16:29:36.066709,1779481776.066709,-301452,-131718,164404559,3072,38143,-32318,61,eaebfe00,0.0,0.0,0.0,0.0,0.0,0.0
2026-05-22 16:29:36.067360,1779481776.067360,-280532,-134825,164409199,3250,30771,-44661,61,eaebfe00,0.0,0.0,0.0,0.0,0.0,0.0
2026-05-22 16:29:36.068195,1779481776.068195,-280532,-134825,164409199,3250,30771,-44661,61,eaebfe00,0.0,0.0,0.0,0.0,0.0,0.0
2026-05-22 16:29:36.068951,1779481776.068951,-305538,-122088,164395588,43923,22548,-37289,61,eaebfe00,0.0,0.0,0.0,0.0,0.0,0.0
2026-05-22 16:29:36.069874,1779481776.069874,-305538,-122088,164395588,43923,22548,-37289,61,eaebfe00,0.0,0.0,0.0,0.0,0.0,0.0
2026-05-22 16:29:36.070643,1779481776.070643,-254549,-117156,164391826,61273,17681,-19412,61,eaebfe00,0.0,0.0,0.0,0.0,0.0,0.0
2026-05-22 16:29:36.071629,1779481776.071629,-254549,-117156,164391826,61273,17681,-19412,61,eaebfe00,0.0,0.0,0.0,0.0,0.0,0.0
2026-05-22 16:29:36.072352,1779481776.072352,-253927,-128062,164347999,73767,11612,-8852,61,eaebfe00,0.0,0.0,0.0,0.0,0.0,0.0
2026-05-22 16:29:36.073840,1779481776.073840,-253927,-128062,164347999,73767,11612,-8852,61,eaebfe00,0.0,0.0,0.0,0.0,0.0,0.0
2026-05-22 16:29:36.074550,1779481776.074550,-234624,-167231,164330554,80808,29693,-11558,61,eaebfe00,0.0,0.0,0.0,0.0,0.0,0.0
2026-05-22 16:29:36.075370,1779481776.075370,-234624,-167231,164330554,80808,29693,-11558,61,eaebfe00,0.0,0.0,0.0,0.0,0.0,0.0
2026-05-22 16:29:36.076004,1779481776.076004,-248841,-199404,164314798,77820,33522,-28850,61,eaebfe00,0.0,0.0,0.0,0.0,0.0,0.0
2026-05-22 16:29:36.076775,1779481776.076775,-248841,-199404,164314798,77820,33522,-28850,61,eaebfe00,0.0,0.0,0.0,0.0,0.0,0.0
2026-05-22 16:29:36.077398,1779481776.077398,-262688,-227403,164363629,77650,35120,-41165,61,eaecfe00,0.0,0.0,0.0,0.0,0.0,0.0
2026-05-22 16:29:36.078173,1779481776.078173,-262688,-227403,164363629,77650,35120,-41165,61,eaecfe00,0.0,0.0,0.0,0.0,0.0,0.0
2026-05-22 16:29:36.078814,1779481776.078814,-305419,-194389,164390697,86250,45680,-28022,61,eaecfe00,0.0,0.0,0.0,0.0,0.0,0.0
2026-05-22 16:29:36.080501,1779481776.080501,-305419,-194389,164390697,86250,45680,-28022,61,eaecfe00,0.0,0.0,0.0,0.0,0.0,0.0
2026-05-22 16:29:36.081118,1779481776.081118,-294598,-154463,164478323,86707,41110,-9743,61,eaecfe00,0.0,0.0,0.0,0.0,0.0,0.0
2026-05-22 16:29:36.081904,1779481776.081904,-294598,-154463,164478323,86707,41110,-9743,61,eaecfe00,0.0,0.0,0.0,0.0,0.0,0.0
2026-05-22 16:29:36.082589,1779481776.082589,-347337,-109018,164409351,73277,35211,-1085,61,eaecfe00,0.0,0.0,0.0,0.0,0.0,0.0
2026-05-22 16:29:36.083376,1779481776.083376,-347337,-109018,164409351,73277,35211,-1085,61,eaecfe00,0.0,0.0,0.0,0.0,0.0,0.0
2026-05-22 16:29:36.084015,1779481776.084015,-315303,-56669,164367981,62574,30476,-16549,61,eaecfe00,0.0,0.0,0.0,0.0,0.0,0.0
2026-05-22 16:29:36.084820,1779481776.084820,-315303,-56669,164367981,62574,30476,-16549,61,eaecfe00,0.0,0.0,0.0,0.0,0.0,0.0
2026-05-22 16:29:36.085502,1779481776.085502,-387962,-79599,164325516,45656,34553,-20620,61,eaecfe00,0.0,0.0,0.0,0.0,0.0,0.0
2026-05-22 16:29:36.086446,1779481776.086446,-387962,-79599,164325516,45656,34553,-20620,61,eaecfe00,0.0,0.0,0.0,0.0,0.0,0.0
2026-05-22 16:29:36.087270,1779481776.087270,-385295,-119734,164352708,55553,30064,-22359,61,eaebfe00,0.0,0.0,0.0,0.0,0.0,0.0
2026-05-22 16:29:36.088347,1779481776.088347,-385295,-119734,164352708,55553,30064,-22359,61,eaebfe00,0.0,0.0,0.0,0.0,0.0,0.0
2026-05-22 16:29:36.089181,1779481776.089181,-356541,-143641,164344252,40294,26195,-25122,61,eaebfe00,0.0,0.0,0.0,0.0,0.0,0.0
2026-05-22 16:29:36.090529,1779481776.090529,-356541,-143641,164344252,40294,26195,-25122,61,eaebfe00,0.0,0.0,0.0,0.0,0.0,0.0
2026-05-22 16:29:36.091440,1779481776.091440,-344232,-158562,164343159,37107,27085,-32203,61,eaebfe00,0.0,0.0,0.0,0.0,0.0,0.0
2026-05-22 16:29:36.092424,1779481776.092424,-344232,-158562,164343159,37107,27085,-32203,61,eaebfe00,0.0,0.0,0.0,0.0,0.0,0.0
2026-05-22 16:29:36.093275,1779481776.093275,-329523,-137964,164363897,44460,43709,-27728,61,eaebfe00,0.0,0.0,0.0,0.0,0.0,0.0
2026-05-22 16:29:36.094073,1779481776.094073,-329523,-137964,164363897,44460,43709,-27728,61,eaebfe00,0.0,0.0,0.0,0.0,0.0,0.0
2026-05-22 16:29:36.094740,1779481776.094740,-354825,-131366,164379561,62829,69181,-26309,61,eaecfe00,0.0,0.0,0.0,0.0,0.0,0.0
2026-05-22 16:29:36.095680,1779481776.095680,-354825,-131366,164379561,62829,69181,-26309,61,eaecfe00,0.0,0.0,0.0,0.0,0.0,0.0
2026-05-22 16:29:36.096492,1779481776.096492,-368459,-193259,164394034,58862,59270,-37299,61,eaecfe00,0.0,0.0,0.0,0.0,0.0,0.0
2026-05-22 16:29:36.098490,1779481776.098490,-368459,-193259,164394034,58862,59270,-37299,61,eaecfe00,0.0,0.0,0.0,0.0,0.0,0.0
2026-05-22 16:29:36.099144,1779481776.099144,-352369,-223860,164383629,57586,75729,-35477,61,eaebfe00,0.0,0.0,0.0,0.0,0.0,0.0
2026-05-22 16:29:36.099947,1779481776.099947,-352369,-223860,164383629,57586,75729,-35477,61,eaebfe00,0.0,0.0,0.0,0.0,0.0,0.0
2026-05-22 16:29:36.100812,1779481776.100812,-334675,-225590,164364008,45999,67420,-47583,61,eaebfe00,0.0,0.0,0.0,0.0,0.0,0.0
2026-05-22 16:29:36.101825,1779481776.101825,-334675,-225590,164364008,45999,67420,-47583,61,eaebfe00,0.0,0.0,0.0,0.0,0.0,0.0
2026-05-22 16:29:36.102855,1779481776.102855,-352864,-168126,164319657,56136,53440,-38417,61,eaebfe00,0.0,0.0,0.0,0.0,0.0,0.0
2026-05-22 16:29:36.104192,1779481776.104192,-352864,-168126,164319657,56136,53440,-38417,61,eaebfe00,0.0,0.0,0.0,0.0,0.0,0.0
2026-05-22 16:29:36.105138,1779481776.105138,-300975,-148805,164353462,63244,49466,-61951,61,eaebfe00,0.0,0.0,0.0,0.0,0.0,0.0
2026-05-22 16:29:36.106291,1779481776.106291,-300975,-148805,164353462,63244,49466,-61951,61,eaebfe00,0.0,0.0,0.0,0.0,0.0,0.0
2026-05-22 16:29:36.107173,1779481776.107173,-262966,-165722,164385271,54358,56768,-49102,61,eaebfe00,0.0,0.0,0.0,0.0,0.0,0.0
2026-05-22 16:29:36.108287,1779481776.108287,-262966,-165722,164385271,54358,56768,-49102,61,eaebfe00,0.0,0.0,0.0,0.0,0.0,0.0
2026-05-22 16:29:36.109326,1779481776.109326,-233356,-166833,164427166,40342,51447,-11124,61,eaebfe00,0.0,0.0,0.0,0.0,0.0,0.0
2026-05-22 16:29:36.110624,1779481776.110624,-233356,-166833,164427166,40342,51447,-11124,61,eaebfe00,0.0,0.0,0.0,0.0,0.0,0.0
2026-05-22 16:29:36.111526,1779481776.111526,-252526,-171718,164435766,18393,57520,-29629,61,eaebfe00,0.0,0.0,0.0,0.0,0.0,0.0
2026-05-22 16:29:36.112565,1779481776.112565,-252526,-171718,164435766,18393,57520,-29629,61,eaebfe00,0.0,0.0,0.0,0.0,0.0,0.0
2026-05-22 16:29:36.113220,1779481776.113220,-293160,-170106,164397687,23817,39566,-30401,61,eaebfe00,0.0,0.0,0.0,0.0,0.0,0.0
2026-05-22 16:29:36.114057,1779481776.114057,-293160,-170106,164397687,23817,39566,-30401,61,eaebfe00,0.0,0.0,0.0,0.0,0.0,0.0
2026-05-22 16:29:36.114700,1779481776.114700,-291460,-160026,164442501,45924,24967,-42877,61,eaebfe00,0.0,0.0,0.0,0.0,0.0,0.0
2026-05-22 16:29:36.115478,1779481776.115478,-291460,-160026,164442501,45924,24967,-42877,61,eaebfe00,0.0,0.0,0.0,0.0,0.0,0.0
2026-05-22 16:29:36.116108,1779481776.116108,-260481,-163628,164462108,67383,17752,-19556,61,eaecfe00,0.0,0.0,0.0,0.0,0.0,0.0
2026-05-22 16:29:36.118182,1779481776.118182,-260481,-163628,164462108,67383,17752,-19556,61,eaecfe00,0.0,0.0,0.0,0.0,0.0,0.0
2026-05-22 16:29:36.118866,1779481776.118866,-213093,-181281,164464830,66902,19334,-10739,61,eaecfe00,0.0,0.0,0.0,0.0,0.0,0.0
2026-05-22 16:29:36.119685,1779481776.119685,-213093,-181281,164464830,66902,19334,-10739,61,eaecfe00,0.0,0.0,0.0,0.0,0.0,0.0
2026-05-22 16:29:36.120340,1779481776.120340,-207219,-184821,164484816,42669,22271,-25101,61,eaecfe00,0.0,0.0,0.0,0.0,0.0,0.0
2026-05-22 16:29:36.121175,1779481776.121175,-207219,-184821,164484816,42669,22271,-25101,61,eaecfe00,0.0,0.0,0.0,0.0,0.0,0.0
2026-05-22 16:29:36.122030,1779481776.122030,-257631,-204901,164444743,20263,25625,-31734,61,eaecfe00,0.0,0.0,0.0,0.0,0.0,0.0
2026-05-22 16:29:36.123174,1779481776.123174,-257631,-204901,164444743,20263,25625,-31734,61,eaecfe00,0.0,0.0,0.0,0.0,0.0,0.0
2026-05-22 16:29:36.124339,1779481776.124339,-329754,-180325,164431400,17222,26632,-26474,61,eaebfe00,0.0,0.0,0.0,0.0,0.0,0.0
2026-05-22 16:29:36.125424,1779481776.125424,-329754,-180325,164431400,17222,26632,-26474,61,eaebfe00,0.0,0.0,0.0,0.0,0.0,0.0
2026-05-22 16:29:36.126280,1779481776.126280,-400244,-163285,164399764,18534,21866,-12644,61,eaecfe00,0.0,0.0,0.0,0.0,0.0,0.0
2026-05-22 16:29:36.127111,1779481776.127111,-400244,-163285,164399764,18534,21866,-12644,61,eaecfe00,0.0,0.0,0.0,0.0,0.0,0.0
2026-05-22 16:29:36.128003,1779481776.128003,-389397,-161819,164402212,32206,40943,-18952,61,eaecfe00,0.0,0.0,0.0,0.0,0.0,0.0
2026-05-22 16:29:36.129036,1779481776.129036,-389397,-161819,164402212,32206,40943,-18952,61,eaecfe00,0.0,0.0,0.0,0.0,0.0,0.0
2026-05-22 16:29:36.129916,1779481776.129916,-359366,-196822,164401238,49396,48553,-42882,61,eaebfe00,0.0,0.0,0.0,0.0,0.0,0.0
2026-05-22 16:29:36.130973,1779481776.130973,-359366,-196822,164401238,49396,48553,-42882,61,eaebfe00,0.0,0.0,0.0,0.0,0.0,0.0
2026-05-22 16:29:36.131762,1779481776.131762,-316790,-224473,164412977,11011,71223,-75041,61,eaecfe00,0.0,0.0,0.0,0.0,0.0,0.0
2026-05-22 16:29:36.132619,1779481776.132619,-316790,-224473,164412977,11011,71223,-75041,61,eaecfe00,0.0,0.0,0.0,0.0,0.0,0.0
2026-05-22 16:29:36.133302,1779481776.133302,-347999,-165723,164379210,26438,65766,-71760,61,eaebfe00,0.0,0.0,0.0,0.0,0.0,0.0
2026-05-22 16:29:36.134213,1779481776.134213,-347999,-165723,164379210,26438,65766,-71760,61,eaebfe00,0.0,0.0,0.0,0.0,0.0,0.0
2026-05-22 16:29:36.135119,1779481776.135119,-332127,-113398,164364958,2649,66426,-70761,61,eaecfe00,0.0,0.0,0.0,0.0,0.0,0.0
2026-05-22 16:29:36.137254,1779481776.137254,-332127,-113398,164364958,2649,66426,-70761,61,eaecfe00,0.0,0.0,0.0,0.0,0.0,0.0
2026-05-22 16:29:36.138077,1779481776.138077,-323479,-105668,164371684,28226,68215,-46952,61,eaebfe00,0.0,0.0,0.0,0.0,0.0,0.0
2026-05-22 16:29:36.139116,1779481776.139116,-323479,-105668,164371684,28226,68215,-46952,61,eaebfe00,0.0,0.0,0.0,0.0,0.0,0.0
2026-05-22 16:29:36.140084,1779481776.140084,-314787,-134203,164404877,28372,48799,-29858,61,eaecfe00,0.0,0.0,0.0,0.0,0.0,0.0
2026-05-22 16:29:36.141335,1779481776.141335,-314787,-134203,164404877,28372,48799,-29858,61,eaecfe00,0.0,0.0,0.0,0.0,0.0,0.0
2026-05-22 16:29:36.142185,1779481776.142185,-301281,-154560,164412025,27756,41158,-44393,61,eaebfe00,0.0,0.0,0.0,0.0,0.0,0.0
2026-05-22 16:29:36.143183,1779481776.143183,-301281,-154560,164412025,27756,41158,-44393,61,eaebfe00,0.0,0.0,0.0,0.0,0.0,0.0
2026-05-22 16:29:36.143849,1779481776.143849,-321991,-191280,164402554,29511,26534,-30397,61,eaebfe00,0.0,0.0,0.0,0.0,0.0,0.0
2026-05-22 16:29:36.144670,1779481776.144670,-321991,-191280,164402554,29511,26534,-30397,61,eaebfe00,0.0,0.0,0.0,0.0,0.0,0.0
2026-05-22 16:29:36.145320,1779481776.145320,-335546,-206175,164394837,59874,50361,-25552,61,eaebfe00,0.0,0.0,0.0,0.0,0.0,0.0
2026-05-22 16:29:36.146121,1779481776.146121,-335546,-206175,164394837,59874,50361,-25552,61,eaebfe00,0.0,0.0,0.0,0.0,0.0,0.0
2026-05-22 16:29:36.146771,1779481776.146771,-343235,-171013,164380427,68380,67576,-15519,61,eaebfe00,0.0,0.0,0.0,0.0,0.0,0.0
2026-05-22 16:29:36.147564,1779481776.147564,-343235,-171013,164380427,68380,67576,-15519,61,eaebfe00,0.0,0.0,0.0,0.0,0.0,0.0
2026-05-22 16:29:36.148208,1779481776.148208,-329129,-164922,164404643,85555,53774,-11440,61,eaebfe00,0.0,0.0,0.0,0.0,0.0,0.0
2026-05-22 16:29:36.149024,1779481776.149024,-329129,-164922,164404643,85555,53774,-11440,61,eaebfe00,0.0,0.0,0.0,0.0,0.0,0.0
2026-05-22 16:29:36.149651,1779481776.149651,-317087,-125983,164428682,48362,50737,-32949,61,eaebfe00,0.0,0.0,0.0,0.0,0.0,0.0
2026-05-22 16:29:36.150461,1779481776.150461,-317087,-125983,164428682,48362,50737,-32949,61,eaebfe00,0.0,0.0,0.0,0.0,0.0,0.0
2026-05-22 16:29:36.151083,1779481776.151083,-306138,-157923,164432069,29979,32150,-37200,61,eaecfe00,0.0,0.0,0.0,0.0,0.0,0.0
2026-05-22 16:29:36.152029,1779481776.152029,-306138,-157923,164432069,29979,32150,-37200,61,eaecfe00,0.0,0.0,0.0,0.0,0.0,0.0
2026-05-22 16:29:36.152698,1779481776.152698,-340891,-192710,164462474,35665,31102,-50152,61,eaecfe00,0.0,0.0,0.0,0.0,0.0,0.0
2026-05-22 16:29:36.156103,1779481776.156103,-340891,-192710,164462474,35665,31102,-50152,61,eaecfe00,0.0,0.0,0.0,0.0,0.0,0.0
2026-05-22 16:29:36.158588,1779481776.158588,-360266,-175770,164455599,70036,11395,-64980,61,eaecfe00,0.0,0.0,0.0,0.0,0.0,0.0
2026-05-22 16:29:36.159443,1779481776.159443,-360266,-175770,164455599,70036,11395,-64980,61,eaecfe00,0.0,0.0,0.0,0.0,0.0,0.0
2026-05-22 16:29:36.160077,1779481776.160077,-372421,-194274,164464889,70418,8002,-55529,61,eaecfe00,0.0,0.0,0.0,0.0,0.0,0.0
2026-05-22 16:29:36.160883,1779481776.160883,-372421,-194274,164464889,70418,8002,-55529,61,eaecfe00,0.0,0.0,0.0,0.0,0.0,0.0
2026-05-22 16:29:36.161536,1779481776.161536,-358076,-162004,164471882,72913,15363,-48865,61,eaebfe00,0.0,0.0,0.0,0.0,0.0,0.0
2026-05-22 16:29:36.162322,1779481776.162322,-358076,-162004,164471882,72913,15363,-48865,61,eaebfe00,0.0,0.0,0.0,0.0,0.0,0.0
2026-05-22 16:29:36.162948,1779481776.162948,-360669,-162485,164458880,75503,37694,-29515,61,eaecfe00,0.0,0.0,0.0,0.0,0.0,0.0
2026-05-22 16:29:36.163804,1779481776.163804,-360669,-162485,164458880,75503,37694,-29515,61,eaecfe00,0.0,0.0,0.0,0.0,0.0,0.0
2026-05-22 16:29:36.164474,1779481776.164474,-345605,-138228,164470359,82627,54091,-16541,61,eaebfe00,0.0,0.0,0.0,0.0,0.0,0.0
2026-05-22 16:29:36.165337,1779481776.165337,-345605,-138228,164470359,82627,54091,-16541,61,eaebfe00,0.0,0.0,0.0,0.0,0.0,0.0
2026-05-22 16:29:36.165953,1779481776.165953,-349874,-107018,164451917,46551,48893,-18428,61,eaebfe00,0.0,0.0,0.0,0.0,0.0,0.0
2026-05-22 16:29:36.166736,1779481776.166736,-349874,-107018,164451917,46551,48893,-18428,61,eaebfe00,0.0,0.0,0.0,0.0,0.0,0.0
2026-05-22 16:29:36.167360,1779481776.167360,-327710,-86020,164430564,9336,64838,-63120,61,eaebfe00,0.0,0.0,0.0,0.0,0.0,0.0
2026-05-22 16:29:36.168228,1779481776.168228,-327710,-86020,164430564,9336,64838,-63120,61,eaebfe00,0.0,0.0,0.0,0.0,0.0,0.0
2026-05-22 16:29:36.168999,1779481776.168999,-275159,-92923,164444293,27101,58023,-77544,61,eaebfe00,0.0,0.0,0.0,0.0,0.0,0.0
2026-05-22 16:29:36.169976,1779481776.169976,-275159,-92923,164444293,27101,58023,-77544,61,eaebfe00,0.0,0.0,0.0,0.0,0.0,0.0
2026-05-22 16:29:36.170794,1779481776.170794,-277551,-111264,164433260,41926,50959,-82698,61,eaecfe00,0.0,0.0,0.0,0.0,0.0,0.0
2026-05-22 16:29:36.171801,1779481776.171801,-277551,-111264,164433260,41926,50959,-82698,61,eaecfe00,0.0,0.0,0.0,0.0,0.0,0.0
2026-05-22 16:29:36.172640,1779481776.172640,-301887,-117213,164454651,59406,43531,-66251,61,eaecfe00,0.0,0.0,0.0,0.0,0.0,0.0
2026-05-22 16:29:36.175201,1779481776.175201,-301887,-117213,164454651,59406,43531,-66251,61,eaecfe00,0.0,0.0,0.0,0.0,0.0,0.0
2026-05-22 16:29:36.176215,1779481776.176215,-353019,-159183,164435067,56019,47679,-68038,61,eaecfe00,0.0,0.0,0.0,0.0,0.0,0.0
2026-05-22 16:29:36.177061,1779481776.177061,-353019,-159183,164435067,56019,47679,-68038,61,eaecfe00,0.0,0.0,0.0,0.0,0.0,0.0
2026-05-22 16:29:36.177762,1779481776.177762,-356884,-156082,164426331,63539,57146,-64771,61,eaebfe00,0.0,0.0,0.0,0.0,0.0,0.0
2026-05-22 16:29:36.178581,1779481776.178581,-356884,-156082,164426331,63539,57146,-64771,61,eaebfe00,0.0,0.0,0.0,0.0,0.0,0.0
2026-05-22 16:29:36.179213,1779481776.179213,-314840,-170740,164399300,64742,41872,-49141,61,eaebfe00,0.0,0.0,0.0,0.0,0.0,0.0
2026-05-22 16:29:36.180035,1779481776.180035,-314840,-170740,164399300,64742,41872,-49141,61,eaebfe00,0.0,0.0,0.0,0.0,0.0,0.0
2026-05-22 16:29:36.180655,1779481776.180655,-287878,-166866,164392409,73915,37440,-37885,61,eaebfe00,0.0,0.0,0.0,0.0,0.0,0.0
2026-05-22 16:29:36.181418,1779481776.181418,-287878,-166866,164392409,73915,37440,-37885,61,eaebfe00,0.0,0.0,0.0,0.0,0.0,0.0
2026-05-22 16:29:36.182019,1779481776.182019,-293901,-155522,164389207,77135,51989,-18503,61,eaebfe00,0.0,0.0,0.0,0.0,0.0,0.0
2026-05-22 16:29:36.182856,1779481776.182856,-293901,-155522,164389207,77135,51989,-18503,61,eaebfe00,0.0,0.0,0.0,0.0,0.0,0.0
2026-05-22 16:29:36.183479,1779481776.183479,-288799,-171287,164379138,88623,69536,-22039,61,eaebfe00,0.0,0.0,0.0,0.0,0.0,0.0
2026-05-22 16:29:36.184272,1779481776.184272,-288799,-171287,164379138,88623,69536,-22039,61,eaebfe00,0.0,0.0,0.0,0.0,0.0,0.0
2026-05-22 16:29:36.185008,1779481776.185008,-329504,-124977,164394707,76871,63258,-7374,61,eaebfe00,0.0,0.0,0.0,0.0,0.0,0.0
2026-05-22 16:29:36.185914,1779481776.185914,-329504,-124977,164394707,76871,63258,-7374,61,eaebfe00,0.0,0.0,0.0,0.0,0.0,0.0
2026-05-22 16:29:36.186559,1779481776.186559,-337251,-135670,164378207,71384,56125,-18681,61,eaebfe00,0.0,0.0,0.0,0.0,0.0,0.0
2026-05-22 16:29:36.187392,1779481776.187392,-337251,-135670,164378207,71384,56125,-18681,61,eaebfe00,0.0,0.0,0.0,0.0,0.0,0.0
2026-05-22 16:29:36.188136,1779481776.188136,-360148,-124135,164404632,52350,56921,-37625,61,eaebfe00,0.0,0.0,0.0,0.0,0.0,0.0
2026-05-22 16:29:36.189102,1779481776.189102,-360148,-124135,164404632,52350,56921,-37625,61,eaebfe00,0.0,0.0,0.0,0.0,0.0,0.0
2026-05-22 16:29:36.189964,1779481776.189964,-369518,-117524,164394932,56731,61683,-49376,61,eaebfe00,0.0,0.0,0.0,0.0,0.0,0.0
2026-05-22 16:29:36.192063,1779481776.192063,-369518,-117524,164394932,56731,61683,-49376,61,eaebfe00,0.0,0.0,0.0,0.0,0.0,0.0
2026-05-22 16:29:36.192849,1779481776.192849,-346808,-148841,164419785,68188,50417,-44168,61,eaebfe00,0.0,0.0,0.0,0.0,0.0,0.0
2026-05-22 16:29:36.193732,1779481776.193732,-346808,-148841,164419785,68188,50417,-44168,61,eaebfe00,0.0,0.0,0.0,0.0,0.0,0.0
2026-05-22 16:29:36.194386,1779481776.194386,-302131,-118703,164399833,85836,33876,-38051,61,eaebfe00,0.0,0.0,0.0,0.0,0.0,0.0
2026-05-22 16:29:36.195185,1779481776.195185,-302131,-118703,164399833,85836,33876,-38051,61,eaebfe00,0.0,0.0,0.0,0.0,0.0,0.0
2026-05-22 16:29:36.195813,1779481776.195813,-297992,-132230,164392277,82560,10976,-49916,61,eaebfe00,0.0,0.0,0.0,0.0,0.0,0.0
2026-05-22 16:29:36.196599,1779481776.196599,-297992,-132230,164392277,82560,10976,-49916,61,eaebfe00,0.0,0.0,0.0,0.0,0.0,0.0
2026-05-22 16:29:36.197202,1779481776.197202,-299089,-130952,164375765,65056,37076,-59964,61,eaecfe00,0.0,0.0,0.0,0.0,0.0,0.0
2026-05-22 16:29:36.198009,1779481776.198009,-299089,-130952,164375765,65056,37076,-59964,61,eaecfe00,0.0,0.0,0.0,0.0,0.0,0.0
2026-05-22 16:29:36.198617,1779481776.198617,-260665,-149809,164403062,65963,35951,-45370,61,eaebfe00,0.0,0.0,0.0,0.0,0.0,0.0
2026-05-22 16:29:36.199384,1779481776.199384,-260665,-149809,164403062,65963,35951,-45370,61,eaebfe00,0.0,0.0,0.0,0.0,0.0,0.0
2026-05-22 16:29:36.200215,1779481776.200215,-214163,-121063,164426900,80757,36179,-60282,61,eaebfe00,0.0,0.0,0.0,0.0,0.0,0.0
2026-05-22 16:29:36.201133,1779481776.201133,-214163,-121063,164426900,80757,36179,-60282,61,eaebfe00,0.0,0.0,0.0,0.0,0.0,0.0
2026-05-22 16:29:36.202034,1779481776.202034,-232184,-129428,164423473,87655,23455,-52034,61,eaebfe00,0.0,0.0,0.0,0.0,0.0,0.0
2026-05-22 16:29:36.203126,1779481776.203126,-232184,-129428,164423473,87655,23455,-52034,61,eaebfe00,0.0,0.0,0.0,0.0,0.0,0.0
2026-05-22 16:29:36.203972,1779481776.203972,-272028,-130130,164385887,84650,17938,-54575,61,eaecfe00,0.0,0.0,0.0,0.0,0.0,0.0
2026-05-22 16:29:36.204970,1779481776.204970,-272028,-130130,164385887,84650,17938,-54575,61,eaecfe00,0.0,0.0,0.0,0.0,0.0,0.0
2026-05-22 16:29:36.205793,1779481776.205793,-325996,-120543,164374675,79265,22782,-46766,61,eaecfe00,0.0,0.0,0.0,0.0,0.0,0.0
2026-05-22 16:29:36.206877,1779481776.206877,-325996,-120543,164374675,79265,22782,-46766,61,eaecfe00,0.0,0.0,0.0,0.0,0.0,0.0
2026-05-22 16:29:36.207986,1779481776.207986,-320054,-128041,164370874,74235,27712,-28862,61,eaecfe00,0.0,0.0,0.0,0.0,0.0,0.0
2026-05-22 16:29:36.210020,1779481776.210020,-320054,-128041,164370874,74235,27712,-28862,61,eaecfe00,0.0,0.0,0.0,0.0,0.0,0.0
2026-05-22 16:29:36.210698,1779481776.210698,-339060,-134931,164364704,96547,37410,-17446,61,eaecfe00,0.0,0.0,0.0,0.0,0.0,0.0
2026-05-22 16:29:36.211533,1779481776.211533,-339060,-134931,164364704,96547,37410,-17446,61,eaecfe00,0.0,0.0,0.0,0.0,0.0,0.0
2026-05-22 16:29:36.212193,1779481776.212193,-308145,-176006,164388743,110301,34913,-6707,61,eaebfe00,0.0,0.0,0.0,0.0,0.0,0.0
2026-05-22 16:29:36.213029,1779481776.213029,-308145,-176006,164388743,110301,34913,-6707,61,eaebfe00,0.0,0.0,0.0,0.0,0.0,0.0
2026-05-22 16:29:36.213693,1779481776.213693,-269465,-180047,164403050,87755,41402,-27629,61,eaebfe00,0.0,0.0,0.0,0.0,0.0,0.0
2026-05-22 16:29:36.214493,1779481776.214493,-269465,-180047,164403050,87755,41402,-27629,61,eaebfe00,0.0,0.0,0.0,0.0,0.0,0.0
2026-05-22 16:29:36.215119,1779481776.215119,-255095,-173221,164425766,77846,58425,-44344,61,eaebfe00,0.0,0.0,0.0,0.0,0.0,0.0
2026-05-22 16:29:36.215929,1779481776.215929,-255095,-173221,164425766,77846,58425,-44344,61,eaebfe00,0.0,0.0,0.0,0.0,0.0,0.0
2026-05-22 16:29:36.216600,1779481776.216600,-271234,-205441,164419782,67310,76995,-66427,61,eaebfe00,0.0,0.0,0.0,0.0,0.0,0.0
2026-05-22 16:29:36.217461,1779481776.217461,-271234,-205441,164419782,67310,76995,-66427,61,eaebfe00,0.0,0.0,0.0,0.0,0.0,0.0
2026-05-22 16:29:36.218291,1779481776.218291,-319516,-162492,164403846,85722,65942,-58801,61,eaebfe00,0.0,0.0,0.0,0.0,0.0,0.0
2026-05-22 16:29:36.219148,1779481776.219148,-319516,-162492,164403846,85722,65942,-58801,61,eaebfe00,0.0,0.0,0.0,0.0,0.0,0.0
2026-05-22 16:29:36.219816,1779481776.219816,-325398,-126446,164429977,83031,71232,-39831,61,eaebfe00,0.0,0.0,0.0,0.0,0.0,0.0
2026-05-22 16:29:36.220631,1779481776.220631,-325398,-126446,164429977,83031,71232,-39831,61,eaebfe00,0.0,0.0,0.0,0.0,0.0,0.0
2026-05-22 16:29:36.221277,1779481776.221277,-299257,-118142,164381045,84829,37048,-24923,61,eaebfe00,0.0,0.0,0.0,0.0,0.0,0.0
2026-05-22 16:29:36.222128,1779481776.222128,-299257,-118142,164381045,84829,37048,-24923,61,eaebfe00,0.0,0.0,0.0,0.0,0.0,0.0
2026-05-22 16:29:36.222842,1779481776.222842,-301847,-137956,164387780,83006,36573,-34258,61,eaebfe00,0.0,0.0,0.0,0.0,0.0,0.0
2026-05-22 16:29:36.223912,1779481776.223912,-301847,-137956,164387780,83006,36573,-34258,61,eaebfe00,0.0,0.0,0.0,0.0,0.0,0.0
2026-05-22 16:29:36.224823,1779481776.224823,-291437,-203426,164384849,90587,18259,-38443,61,eaebfe00,0.0,0.0,0.0,0.0,0.0,0.0
2026-05-22 16:29:36.227220,1779481776.227220,-291437,-203426,164384849,90587,18259,-38443,61,eaebfe00,0.0,0.0,0.0,0.0,0.0,0.0
2026-05-22 16:29:36.228140,1779481776.228140,-361988,-209093,164395972,70339,34958,-41187,61,eaecfe00,0.0,0.0,0.0,0.0,0.0,0.0
2026-05-22 16:29:36.229263,1779481776.229263,-361988,-209093,164395972,70339,34958,-41187,61,eaecfe00,0.0,0.0,0.0,0.0,0.0,0.0
2026-05-22 16:29:36.230201,1779481776.230201,-366452,-164691,164407593,43284,31872,-32153,61,eaebfe00,0.0,0.0,0.0,0.0,0.0,0.0
2026-05-22 16:29:36.231380,1779481776.231380,-366452,-164691,164407593,43284,31872,-32153,61,eaebfe00,0.0,0.0,0.0,0.0,0.0,0.0
2026-05-22 16:29:36.232206,1779481776.232206,-365285,-134849,164405139,23790,36527,-50515,61,eaebfe00,0.0,0.0,0.0,0.0,0.0,0.0
2026-05-22 16:29:36.233076,1779481776.233076,-365285,-134849,164405139,23790,36527,-50515,61,eaebfe00,0.0,0.0,0.0,0.0,0.0,0.0
2026-05-22 16:29:36.233836,1779481776.233836,-315611,-144712,164406863,20931,45902,-71531,61,eaebfe00,0.0,0.0,0.0,0.0,0.0,0.0
2026-05-22 16:29:36.234960,1779481776.234960,-315611,-144712,164406863,20931,45902,-71531,61,eaebfe00,0.0,0.0,0.0,0.0,0.0,0.0
2026-05-22 16:29:36.235692,1779481776.235692,-273833,-177641,164413592,37386,38994,-55553,61,eaecfe00,0.0,0.0,0.0,0.0,0.0,0.0
2026-05-22 16:29:36.236567,1779481776.236567,-273833,-177641,164413592,37386,38994,-55553,61,eaecfe00,0.0,0.0,0.0,0.0,0.0,0.0
2026-05-22 16:29:36.237317,1779481776.237317,-266281,-195645,164396998,46249,33265,-23147,61,eaecfe00,0.0,0.0,0.0,0.0,0.0,0.0
2026-05-22 16:29:36.238262,1779481776.238262,-266281,-195645,164396998,46249,33265,-23147,61,eaecfe00,0.0,0.0,0.0,0.0,0.0,0.0
2026-05-22 16:29:36.239077,1779481776.239077,-263833,-191078,164387982,27085,23504,6736,61,eaebfe00,0.0,0.0,0.0,0.0,0.0,0.0
2026-05-22 16:29:36.240072,1779481776.240072,-263833,-191078,164387982,27085,23504,6736,61,eaebfe00,0.0,0.0,0.0,0.0,0.0,0.0
2026-05-22 16:29:36.240715,1779481776.240715,-318751,-158444,164347030,30550,29312,-7747,61,eaebfe00,0.0,0.0,0.0,0.0,0.0,0.0
2026-05-22 16:29:36.241565,1779481776.241565,-318751,-158444,164347030,30550,29312,-7747,61,eaebfe00,0.0,0.0,0.0,0.0,0.0,0.0
2026-05-22 16:29:36.242186,1779481776.242186,-348526,-151356,164369227,43123,33889,-49186,61,eaebfe00,0.0,0.0,0.0,0.0,0.0,0.0
2026-05-22 16:29:36.243007,1779481776.243007,-348526,-151356,164369227,43123,33889,-49186,61,eaebfe00,0.0,0.0,0.0,0.0,0.0,0.0
2026-05-22 16:29:36.243646,1779481776.243646,-352035,-149612,164366245,51952,29403,-50772,61,eaebfe00,0.0,0.0,0.0,0.0,0.0,0.0
2026-05-22 16:29:36.245463,1779481776.245463,-352035,-149612,164366245,51952,29403,-50772,61,eaebfe00,0.0,0.0,0.0,0.0,0.0,0.0
2026-05-22 16:29:36.246788,1779481776.246788,-321282,-138968,164356592,50735,25072,-66802,61,eaebfe00,0.0,0.0,0.0,0.0,0.0,0.0
2026-05-22 16:29:36.247848,1779481776.247848,-321282,-138968,164356592,50735,25072,-66802,61,eaebfe00,0.0,0.0,0.0,0.0,0.0,0.0
2026-05-22 16:29:36.248603,1779481776.248603,-314242,-159734,164401071,53716,15223,-42719,61,eaebfe00,0.0,0.0,0.0,0.0,0.0,0.0
2026-05-22 16:29:36.249444,1779481776.249444,-314242,-159734,164401071,53716,15223,-42719,61,eaebfe00,0.0,0.0,0.0,0.0,0.0,0.0
2026-05-22 16:29:36.250092,1779481776.250092,-291359,-145625,164412491,40846,15195,-60240,61,eaebfe00,0.0,0.0,0.0,0.0,0.0,0.0
2026-05-22 16:29:36.250968,1779481776.250968,-291359,-145625,164412491,40846,15195,-60240,61,eaebfe00,0.0,0.0,0.0,0.0,0.0,0.0
2026-05-22 16:29:36.251753,1779481776.251753,-324415,-147190,164411160,39507,21386,-46570,61,eaebfe00,0.0,0.0,0.0,0.0,0.0,0.0
2026-05-22 16:29:36.252883,1779481776.252883,-324415,-147190,164411160,39507,21386,-46570,61,eaebfe00,0.0,0.0,0.0,0.0,0.0,0.0
2026-05-22 16:29:36.253788,1779481776.253788,-344280,-143099,164412273,22056,34973,-43777,61,eaecfe00,0.0,0.0,0.0,0.0,0.0,0.0
2026-05-22 16:29:36.254917,1779481776.254917,-344280,-143099,164412273,22056,34973,-43777,61,eaecfe00,0.0,0.0,0.0,0.0,0.0,0.0
2026-05-22 16:29:36.255810,1779481776.255810,-337996,-131182,164370211,52793,13650,-29311,61,eaecfe00,0.0,0.0,0.0,0.0,0.0,0.0
2026-05-22 16:29:36.256881,1779481776.256881,-337996,-131182,164370211,52793,13650,-29311,61,eaecfe00,0.0,0.0,0.0,0.0,0.0,0.0
2026-05-22 16:29:36.257796,1779481776.257796,-324702,-132356,164392417,61130,24319,-31104,61,eaecfe00,0.0,0.0,0.0,0.0,0.0,0.0
2026-05-22 16:29:36.258858,1779481776.258858,-324702,-132356,164392417,61130,24319,-31104,61,eaecfe00,0.0,0.0,0.0,0.0,0.0,0.0
2026-05-22 16:29:36.260194,1779481776.260194,-324702,-132356,164392417,61130,24319,-31104,61,eaecfe00,0.0,0.0,0.0,0.0,0.0,0.0
2026-05-22 16:29:36.260736,1779481776.260736,-295831,-84794,164433654,81367,16576,-19210,61,eaecfe00,0.0,0.0,0.0,0.0,0.0,0.0
2026-05-22 16:29:36.261512,1779481776.261512,-298542,-124406,164442105,63671,39777,-19528,61,eaebfe00,0.0,0.0,0.0,0.0,0.0,0.0
2026-05-22 16:29:36.262559,1779481776.262559,-298542,-124406,164442105,63671,39777,-19528,61,eaebfe00,0.0,0.0,0.0,0.0,0.0,0.0
2026-05-22 16:29:36.263361,1779481776.263361,-280614,-137693,164428969,48270,48479,-11450,61,eaebfe00,0.0,0.0,0.0,0.0,0.0,0.0
2026-05-22 16:29:36.265247,1779481776.265247,-280614,-137693,164428969,48270,48479,-11450,61,eaebfe00,0.0,0.0,0.0,0.0,0.0,0.0
2026-05-22 16:29:36.266038,1779481776.266038,-279779,-153081,164388136,34392,44797,-33666,61,eaebfe00,0.0,0.0,0.0,0.0,0.0,0.0
2026-05-22 16:29:36.266870,1779481776.266870,-279779,-153081,164388136,34392,44797,-33666,61,eaebfe00,0.0,0.0,0.0,0.0,0.0,0.0
2026-05-22 16:29:36.267545,1779481776.267545,-295923,-145456,164380226,43196,26206,-52936,61,eaebfe00,0.0,0.0,0.0,0.0,0.0,0.0
2026-05-22 16:29:36.268555,1779481776.268555,-295923,-145456,164380226,43196,26206,-52936,61,eaebfe00,0.0,0.0,0.0,0.0,0.0,0.0
2026-05-22 16:29:36.269431,1779481776.269431,-279981,-158165,164393135,50986,15636,-38266,61,eaebfe00,0.0,0.0,0.0,0.0,0.0,0.0
2026-05-22 16:29:36.270377,1779481776.270377,-279981,-158165,164393135,50986,15636,-38266,61,eaebfe00,0.0,0.0,0.0,0.0,0.0,0.0
2026-05-22 16:29:36.271062,1779481776.271062,-310513,-139366,164378561,57137,27066,-32732,61,eaebfe00,0.0,0.0,0.0,0.0,0.0,0.0
2026-05-22 16:29:36.272143,1779481776.272143,-310513,-139366,164378561,57137,27066,-32732,61,eaebfe00,0.0,0.0,0.0,0.0,0.0,0.0
2026-05-22 16:29:36.272968,1779481776.272968,-306268,-157881,164351973,55642,37430,-32766,61,eaecfe00,0.0,0.0,0.0,0.0,0.0,0.0
2026-05-22 16:29:36.273754,1779481776.273754,-306268,-157881,164351973,55642,37430,-32766,61,eaecfe00,0.0,0.0,0.0,0.0,0.0,0.0
2026-05-22 16:29:36.274401,1779481776.274401,-312233,-117383,164396634,58911,27915,-58288,61,eaebfe00,0.0,0.0,0.0,0.0,0.0,0.0
2026-05-22 16:29:36.275231,1779481776.275231,-312233,-117383,164396634,58911,27915,-58288,61,eaebfe00,0.0,0.0,0.0,0.0,0.0,0.0
2026-05-22 16:29:36.275886,1779481776.275886,-339086,-145318,164405483,48662,9211,-57235,61,eaebfe00,0.0,0.0,0.0,0.0,0.0,0.0
2026-05-22 16:29:36.276681,1779481776.276681,-339086,-145318,164405483,48662,9211,-57235,61,eaebfe00,0.0,0.0,0.0,0.0,0.0,0.0
2026-05-22 16:29:36.277308,1779481776.277308,-281618,-138183,164431477,43211,-8151,-62463,61,eaebfe00,0.0,0.0,0.0,0.0,0.0,0.0
2026-05-22 16:29:36.278102,1779481776.278102,-281618,-138183,164431477,43211,-8151,-62463,61,eaebfe00,0.0,0.0,0.0,0.0,0.0,0.0
2026-05-22 16:29:36.278724,1779481776.278724,-299438,-157205,164400495,24593,-3914,-58676,61,eaebfe00,0.0,0.0,0.0,0.0,0.0,0.0
2026-05-22 16:29:36.279516,1779481776.279516,-299438,-157205,164400495,24593,-3914,-58676,61,eaebfe00,0.0,0.0,0.0,0.0,0.0,0.0
2026-05-22 16:29:36.280144,1779481776.280144,-302143,-153957,164406022,41992,16769,-54994,61,eaebfe00,0.0,0.0,0.0,0.0,0.0,0.0
2026-05-22 16:29:36.281854,1779481776.281854,-302143,-153957,164406022,41992,16769,-54994,61,eaebfe00,0.0,0.0,0.0,0.0,0.0,0.0
2026-05-22 16:29:36.282493,1779481776.282493,-358581,-161336,164386531,58651,51844,-44743,61,eaebfe00,0.0,0.0,0.0,0.0,0.0,0.0
2026-05-22 16:29:36.283297,1779481776.283297,-358581,-161336,164386531,58651,51844,-44743,61,eaebfe00,0.0,0.0,0.0,0.0,0.0,0.0
2026-05-22 16:29:36.283953,1779481776.283953,-352234,-171985,164394488,83729,53804,-17082,61,eaebfe00,0.0,0.0,0.0,0.0,0.0,0.0
2026-05-22 16:29:36.284912,1779481776.284912,-352234,-171985,164394488,83729,53804,-17082,61,eaebfe00,0.0,0.0,0.0,0.0,0.0,0.0
2026-05-22 16:29:36.285754,1779481776.285754,-302969,-169214,164364700,85213,60061,-16887,61,eaebfe00,0.0,0.0,0.0,0.0,0.0,0.0
2026-05-22 16:29:36.286777,1779481776.286777,-302969,-169214,164364700,85213,60061,-16887,61,eaebfe00,0.0,0.0,0.0,0.0,0.0,0.0
2026-05-22 16:29:36.287554,1779481776.287554,-279895,-134694,164416706,65014,34688,-39261,61,eaebfe00,0.0,0.0,0.0,0.0,0.0,0.0
2026-05-22 16:29:36.288615,1779481776.288615,-279895,-134694,164416706,65014,34688,-39261,61,eaebfe00,0.0,0.0,0.0,0.0,0.0,0.0
2026-05-22 16:29:36.289434,1779481776.289434,-295856,-147525,164385729,53053,22090,-65870,61,eaebfe00,0.0,0.0,0.0,0.0,0.0,0.0
2026-05-22 16:29:36.290565,1779481776.290565,-295856,-147525,164385729,53053,22090,-65870,61,eaebfe00,0.0,0.0,0.0,0.0,0.0,0.0
2026-05-22 16:29:36.291424,1779481776.291424,-339680,-146785,164394720,57596,22507,-66987,61,eaebfe00,0.0,0.0,0.0,0.0,0.0,0.0
2026-05-22 16:29:36.292531,1779481776.292531,-339680,-146785,164394720,57596,22507,-66987,61,eaebfe00,0.0,0.0,0.0,0.0,0.0,0.0
2026-05-22 16:29:36.293310,1779481776.293310,-345614,-178151,164396195,87132,33897,-51366,61,eaecfe00,0.0,0.0,0.0,0.0,0.0,0.0
2026-05-22 16:29:36.294142,1779481776.294142,-345614,-178151,164396195,87132,33897,-51366,61,eaecfe00,0.0,0.0,0.0,0.0,0.0,0.0
2026-05-22 16:29:36.294798,1779481776.294798,-346914,-165539,164444785,96580,60202,-29422,61,eaecfe00,0.0,0.0,0.0,0.0,0.0,0.0
2026-05-22 16:29:36.295626,1779481776.295626,-346914,-165539,164444785,96580,60202,-29422,61,eaecfe00,0.0,0.0,0.0,0.0,0.0,0.0
2026-05-22 16:29:36.296349,1779481776.296349,-334850,-141203,164420488,91159,63533,-27087,61,eaecfe00,0.0,0.0,0.0,0.0,0.0,0.0
2026-05-22 16:29:36.297215,1779481776.297215,-334850,-141203,164420488,91159,63533,-27087,61,eaecfe00,0.0,0.0,0.0,0.0,0.0,0.0
2026-05-22 16:29:36.298046,1779481776.298046,-333738,-156011,164346365,59225,31669,-35602,61,eaecfe00,0.0,0.0,0.0,0.0,0.0,0.0
2026-05-22 16:29:36.299869,1779481776.299869,-333738,-156011,164346365,59225,31669,-35602,61,eaecfe00,0.0,0.0,0.0,0.0,0.0,0.0
2026-05-22 16:29:36.300567,1779481776.300567,-333053,-141484,164303085,39103,31166,-50370,61,eaecfe00,0.0,0.0,0.0,0.0,0.0,0.0
2026-05-22 16:29:36.301428,1779481776.301428,-333053,-141484,164303085,39103,31166,-50370,61,eaecfe00,0.0,0.0,0.0,0.0,0.0,0.0
2026-05-22 16:29:36.302118,1779481776.302118,-280496,-132792,164307081,22540,27644,-53800,61,eaecfe00,0.0,0.0,0.0,0.0,0.0,0.0
2026-05-22 16:29:36.302969,1779481776.302969,-280496,-132792,164307081,22540,27644,-53800,61,eaecfe00,0.0,0.0,0.0,0.0,0.0,0.0
2026-05-22 16:29:36.303614,1779481776.303614,-272113,-155845,164367316,31752,17993,-58344,61,eaebfe00,0.0,0.0,0.0,0.0,0.0,0.0
2026-05-22 16:29:36.304410,1779481776.304410,-272113,-155845,164367316,31752,17993,-58344,61,eaebfe00,0.0,0.0,0.0,0.0,0.0,0.0
2026-05-22 16:29:36.305162,1779481776.305162,-285198,-174151,164382369,31581,13543,-54326,61,eaebfe00,0.0,0.0,0.0,0.0,0.0,0.0
2026-05-22 16:29:36.306283,1779481776.306283,-285198,-174151,164382369,31581,13543,-54326,61,eaebfe00,0.0,0.0,0.0,0.0,0.0,0.0
2026-05-22 16:29:36.307210,1779481776.307210,-280519,-201769,164391554,40664,3046,-31853,61,eaebfe00,0.0,0.0,0.0,0.0,0.0,0.0
2026-05-22 16:29:36.308180,1779481776.308180,-280519,-201769,164391554,40664,3046,-31853,61,eaebfe00,0.0,0.0,0.0,0.0,0.0,0.0
2026-05-22 16:29:36.308868,1779481776.308868,-310383,-206429,164416231,47028,24625,-25093,61,eaebfe00,0.0,0.0,0.0,0.0,0.0,0.0
2026-05-22 16:29:36.309701,1779481776.309701,-310383,-206429,164416231,47028,24625,-25093,61,eaebfe00,0.0,0.0,0.0,0.0,0.0,0.0
2026-05-22 16:29:36.310344,1779481776.310344,-302888,-185818,164452775,62069,28852,-22540,61,eaebfe00,0.0,0.0,0.0,0.0,0.0,0.0
2026-05-22 16:29:36.311156,1779481776.311156,-302888,-185818,164452775,62069,28852,-22540,61,eaebfe00,0.0,0.0,0.0,0.0,0.0,0.0
2026-05-22 16:29:36.311844,1779481776.311844,-307188,-178249,164444802,51639,21852,-40511,61,eaebfe00,0.0,0.0,0.0,0.0,0.0,0.0
2026-05-22 16:29:36.312673,1779481776.312673,-307188,-178249,164444802,51639,21852,-40511,61,eaebfe00,0.0,0.0,0.0,0.0,0.0,0.0
2026-05-22 16:29:36.313327,1779481776.313327,-310566,-167874,164424564,57737,3091,-33900,61,eaebfe00,0.0,0.0,0.0,0.0,0.0,0.0
2026-05-22 16:29:36.314132,1779481776.314132,-310566,-167874,164424564,57737,3091,-33900,61,eaebfe00,0.0,0.0,0.0,0.0,0.0,0.0
2026-05-22 16:29:36.314819,1779481776.314819,-324909,-116517,164449767,51271,-5845,-36682,61,eaecfe00,0.0,0.0,0.0,0.0,0.0,0.0
2026-05-22 16:29:36.316634,1779481776.316634,-324909,-116517,164449767,51271,-5845,-36682,61,eaecfe00,0.0,0.0,0.0,0.0,0.0,0.0
2026-05-22 16:29:36.317309,1779481776.317309,-318502,-122148,164464241,44858,-10193,-13686,61,eaecfe00,0.0,0.0,0.0,0.0,0.0,0.0
2026-05-22 16:29:36.318230,1779481776.318230,-318502,-122148,164464241,44858,-10193,-13686,61,eaecfe00,0.0,0.0,0.0,0.0,0.0,0.0
2026-05-22 16:29:36.319255,1779481776.319255,-302471,-103795,164503489,35571,14753,-37505,61,eaebfe00,0.0,0.0,0.0,0.0,0.0,0.0
2026-05-22 16:29:36.320432,1779481776.320432,-302471,-103795,164503489,35571,14753,-37505,61,eaebfe00,0.0,0.0,0.0,0.0,0.0,0.0
2026-05-22 16:29:36.321395,1779481776.321395,-315390,-170073,164486161,28263,42690,-18416,61,eaebfe00,0.0,0.0,0.0,0.0,0.0,0.0
2026-05-22 16:29:36.322568,1779481776.322568,-315390,-170073,164486161,28263,42690,-18416,61,eaebfe00,0.0,0.0,0.0,0.0,0.0,0.0
2026-05-22 16:29:36.323511,1779481776.323511,-358987,-185419,164442807,63353,83660,-16552,61,eaebfe00,0.0,0.0,0.0,0.0,0.0,0.0
2026-05-22 16:29:36.324683,1779481776.324683,-358987,-185419,164442807,63353,83660,-16552,61,eaebfe00,0.0,0.0,0.0,0.0,0.0,0.0
2026-05-22 16:29:36.325683,1779481776.325683,-349274,-237884,164429893,64504,75610,-8671,61,eaecfe00,0.0,0.0,0.0,0.0,0.0,0.0
2026-05-22 16:29:36.326863,1779481776.326863,-349274,-237884,164429893,64504,75610,-8671,61,eaecfe00,0.0,0.0,0.0,0.0,0.0,0.0
2026-05-22 16:29:36.327817,1779481776.327817,-328400,-215124,164400541,70487,43231,-14226,61,eaecfe00,0.0,0.0,0.0,0.0,0.0,0.0
2026-05-22 16:29:36.328893,1779481776.328893,-328400,-215124,164400541,70487,43231,-14226,61,eaecfe00,0.0,0.0,0.0,0.0,0.0,0.0
2026-05-22 16:29:36.329647,1779481776.329647,-301023,-203654,164378893,37493,22697,-45367,61,eaecfe00,0.0,0.0,0.0,0.0,0.0,0.0
2026-05-22 16:29:36.330462,1779481776.330462,-301023,-203654,164378893,37493,22697,-45367,61,eaecfe00,0.0,0.0,0.0,0.0,0.0,0.0
2026-05-22 16:29:36.331125,1779481776.331125,-341964,-151070,164390971,24568,16651,-66918,61,eaecfe00,0.0,0.0,0.0,0.0,0.0,0.0
2026-05-22 16:29:36.331970,1779481776.331970,-341964,-151070,164390971,24568,16651,-66918,61,eaecfe00,0.0,0.0,0.0,0.0,0.0,0.0
2026-05-22 16:29:36.332680,1779481776.332680,-272100,-157873,164428888,4034,31463,-68473,61,eaecfe00,0.0,0.0,0.0,0.0,0.0,0.0
2026-05-22 16:29:36.333515,1779481776.333515,-272100,-157873,164428888,4034,31463,-68473,61,eaecfe00,0.0,0.0,0.0,0.0,0.0,0.0
2026-05-22 16:29:36.334171,1779481776.334171,-285777,-139763,164442760,40754,19195,-63249,61,eaebfe00,0.0,0.0,0.0,0.0,0.0,0.0
2026-05-22 16:29:36.337256,1779481776.337256,-285777,-139763,164442760,40754,19195,-63249,61,eaebfe00,0.0,0.0,0.0,0.0,0.0,0.0
2026-05-22 16:29:36.339342,1779481776.339342,-244747,-147514,164437524,44235,42870,-54070,61,eaebfe00,0.0,0.0,0.0,0.0,0.0,0.0
2026-05-22 16:29:36.340228,1779481776.340228,-244747,-147514,164437524,44235,42870,-54070,61,eaebfe00,0.0,0.0,0.0,0.0,0.0,0.0
2026-05-22 16:29:36.340934,1779481776.340934,-294532,-131573,164415788,45710,50878,-34079,61,eaebfe00,0.0,0.0,0.0,0.0,0.0,0.0
2026-05-22 16:29:36.341874,1779481776.341874,-294532,-131573,164415788,45710,50878,-34079,61,eaebfe00,0.0,0.0,0.0,0.0,0.0,0.0
2026-05-22 16:29:36.342818,1779481776.342818,-280124,-173927,164388851,69193,75181,-10088,61,eaebfe00,0.0,0.0,0.0,0.0,0.0,0.0
2026-05-22 16:29:36.343946,1779481776.343946,-280124,-173927,164388851,69193,75181,-10088,61,eaebfe00,0.0,0.0,0.0,0.0,0.0,0.0
2026-05-22 16:29:36.344638,1779481776.344638,-275388,-174810,164412352,67868,67411,-16136,61,eaebfe00,0.0,0.0,0.0,0.0,0.0,0.0
2026-05-22 16:29:36.345643,1779481776.345643,-275388,-174810,164412352,67868,67411,-16136,61,eaebfe00,0.0,0.0,0.0,0.0,0.0,0.0
2026-05-22 16:29:36.346564,1779481776.346564,-290920,-184468,164399651,72783,52717,-29105,61,eaecfe00,0.0,0.0,0.0,0.0,0.0,0.0
2026-05-22 16:29:36.347684,1779481776.347684,-290920,-184468,164399651,72783,52717,-29105,61,eaecfe00,0.0,0.0,0.0,0.0,0.0,0.0
2026-05-22 16:29:36.348489,1779481776.348489,-341518,-157318,164390706,53464,57855,-38317,61,eaecfe00,0.0,0.0,0.0,0.0,0.0,0.0
2026-05-22 16:29:36.349376,1779481776.349376,-341518,-157318,164390706,53464,57855,-38317,61,eaecfe00,0.0,0.0,0.0,0.0,0.0,0.0
2026-05-22 16:29:36.350066,1779481776.350066,-388464,-189860,164438199,54775,66554,-51635,61,eaecfe00,0.0,0.0,0.0,0.0,0.0,0.0
2026-05-22 16:29:36.350956,1779481776.350956,-388464,-189860,164438199,54775,66554,-51635,61,eaecfe00,0.0,0.0,0.0,0.0,0.0,0.0
2026-05-22 16:29:36.351736,1779481776.351736,-382519,-159792,164432968,56261,66434,-54658,61,eaecfe00,0.0,0.0,0.0,0.0,0.0,0.0
2026-05-22 16:29:36.352832,1779481776.352832,-382519,-159792,164432968,56261,66434,-54658,61,eaecfe00,0.0,0.0,0.0,0.0,0.0,0.0
2026-05-22 16:29:36.353739,1779481776.353739,-360493,-155711,164435865,52308,54474,-69020,61,eaecfe00,0.0,0.0,0.0,0.0,0.0,0.0
2026-05-22 16:29:36.354659,1779481776.354659,-360493,-155711,164435865,52308,54474,-69020,61,eaecfe00,0.0,0.0,0.0,0.0,0.0,0.0
2026-05-22 16:29:36.355560,1779481776.355560,-318088,-144028,164401372,72866,25132,-57408,61,eaecfe00,0.0,0.0,0.0,0.0,0.0,0.0
2026-05-22 16:29:36.358297,1779481776.358297,-318088,-144028,164401372,72866,25132,-57408,61,eaecfe00,0.0,0.0,0.0,0.0,0.0,0.0
2026-05-22 16:29:36.359308,1779481776.359308,-306632,-169915,164404267,64635,24081,-40074,61,eaecfe00,0.0,0.0,0.0,0.0,0.0,0.0
2026-05-22 16:29:36.360505,1779481776.360505,-306632,-169915,164404267,64635,24081,-40074,61,eaecfe00,0.0,0.0,0.0,0.0,0.0,0.0
2026-05-22 16:29:36.361431,1779481776.361431,-313370,-160090,164408075,62582,24116,-35272,61,eaecfe00,0.0,0.0,0.0,0.0,0.0,0.0
2026-05-22 16:29:36.362443,1779481776.362443,-313370,-160090,164408075,62582,24116,-35272,61,eaecfe00,0.0,0.0,0.0,0.0,0.0,0.0
2026-05-22 16:29:36.363136,1779481776.363136,-324449,-135900,164391409,56733,41404,-47586,61,eaecfe00,0.0,0.0,0.0,0.0,0.0,0.0
2026-05-22 16:29:36.364030,1779481776.364030,-324449,-135900,164391409,56733,41404,-47586,61,eaecfe00,0.0,0.0,0.0,0.0,0.0,0.0
2026-05-22 16:29:36.364746,1779481776.364746,-304173,-139950,164378528,57336,27715,-72317,61,eaecfe00,0.0,0.0,0.0,0.0,0.0,0.0
2026-05-22 16:29:36.365768,1779481776.365768,-304173,-139950,164378528,57336,27715,-72317,61,eaecfe00,0.0,0.0,0.0,0.0,0.0,0.0
2026-05-22 16:29:36.366737,1779481776.366737,-285048,-146438,164410705,63482,32918,-62879,61,eaecfe00,0.0,0.0,0.0,0.0,0.0,0.0
2026-05-22 16:29:36.367741,1779481776.367741,-285048,-146438,164410705,63482,32918,-62879,61,eaecfe00,0.0,0.0,0.0,0.0,0.0,0.0
2026-05-22 16:29:36.368400,1779481776.368400,-277961,-145115,164441708,39104,36422,-39607,61,eaecfe00,0.0,0.0,0.0,0.0,0.0,0.0
2026-05-22 16:29:36.369376,1779481776.369376,-277961,-145115,164441708,39104,36422,-39607,61,eaecfe00,0.0,0.0,0.0,0.0,0.0,0.0
2026-05-22 16:29:36.370252,1779481776.370252,-293417,-142335,164403497,25158,53758,-6903,61,eaebfe00,0.0,0.0,0.0,0.0,0.0,0.0
2026-05-22 16:29:36.371385,1779481776.371385,-293417,-142335,164403497,25158,53758,-6903,61,eaebfe00,0.0,0.0,0.0,0.0,0.0,0.0
2026-05-22 16:29:36.372243,1779481776.372243,-307913,-132647,164380063,33195,63319,-5599,61,eaecfe00,0.0,0.0,0.0,0.0,0.0,0.0
2026-05-22 16:29:36.373418,1779481776.373418,-307913,-132647,164380063,33195,63319,-5599,61,eaecfe00,0.0,0.0,0.0,0.0,0.0,0.0
2026-05-22 16:29:36.374344,1779481776.374344,-300079,-135582,164355487,19772,61246,-2012,61,eaebfe00,0.0,0.0,0.0,0.0,0.0,0.0
2026-05-22 16:29:36.375618,1779481776.375618,-300079,-135582,164355487,19772,61246,-2012,61,eaebfe00,0.0,0.0,0.0,0.0,0.0,0.0
2026-05-22 16:29:36.376522,1779481776.376522,-292151,-117665,164392021,49927,28725,-27520,61,eaebfe00,0.0,0.0,0.0,0.0,0.0,0.0
2026-05-22 16:29:36.378730,1779481776.378730,-292151,-117665,164392021,49927,28725,-27520,61,eaebfe00,0.0,0.0,0.0,0.0,0.0,0.0
2026-05-22 16:29:36.379466,1779481776.379466,-306755,-85001,164405675,54574,16524,-42402,61,eaebfe00,0.0,0.0,0.0,0.0,0.0,0.0
2026-05-22 16:29:36.380292,1779481776.380292,-306755,-85001,164405675,54574,16524,-42402,61,eaebfe00,0.0,0.0,0.0,0.0,0.0,0.0
2026-05-22 16:29:36.381226,1779481776.381226,-334769,-57914,164384848,63533,15741,-64743,61,eaebfe00,0.0,0.0,0.0,0.0,0.0,0.0
2026-05-22 16:29:36.382332,1779481776.382332,-334769,-57914,164384848,63533,15741,-64743,61,eaebfe00,0.0,0.0,0.0,0.0,0.0,0.0
2026-05-22 16:29:36.383142,1779481776.383142,-331363,-96617,164395020,73249,16178,-52871,61,eaebfe00,0.0,0.0,0.0,0.0,0.0,0.0
2026-05-22 16:29:36.384034,1779481776.384034,-331363,-96617,164395020,73249,16178,-52871,61,eaebfe00,0.0,0.0,0.0,0.0,0.0,0.0
2026-05-22 16:29:36.384750,1779481776.384750,-334601,-96004,164366754,68470,23364,-56900,61,eaebfe00,0.0,0.0,0.0,0.0,0.0,0.0
2026-05-22 16:29:36.385642,1779481776.385642,-334601,-96004,164366754,68470,23364,-56900,61,eaebfe00,0.0,0.0,0.0,0.0,0.0,0.0
2026-05-22 16:29:36.386388,1779481776.386388,-313334,-129979,164373087,85582,31313,-58805,61,eaebfe00,0.0,0.0,0.0,0.0,0.0,0.0
2026-05-22 16:29:36.387436,1779481776.387436,-313334,-129979,164373087,85582,31313,-58805,61,eaebfe00,0.0,0.0,0.0,0.0,0.0,0.0
2026-05-22 16:29:36.388330,1779481776.388330,-320550,-170759,164348519,76663,27739,-60492,61,eaebfe00,0.0,0.0,0.0,0.0,0.0,0.0
2026-05-22 16:29:36.389314,1779481776.389314,-320550,-170759,164348519,76663,27739,-60492,61,eaebfe00,0.0,0.0,0.0,0.0,0.0,0.0
2026-05-22 16:29:36.390068,1779481776.390068,-315126,-127374,164328048,68137,30536,-48373,61,eaebfe00,0.0,0.0,0.0,0.0,0.0,0.0
2026-05-22 16:29:36.391106,1779481776.391106,-315126,-127374,164328048,68137,30536,-48373,61,eaebfe00,0.0,0.0,0.0,0.0,0.0,0.0
2026-05-22 16:29:36.391793,1779481776.391793,-319002,-124807,164312303,63924,25716,-53782,61,eaecfe00,0.0,0.0,0.0,0.0,0.0,0.0
2026-05-22 16:29:36.392654,1779481776.392654,-319002,-124807,164312303,63924,25716,-53782,61,eaecfe00,0.0,0.0,0.0,0.0,0.0,0.0
2026-05-22 16:29:36.393326,1779481776.393326,-319266,-106298,164330361,50124,18137,-50006,61,eaebfe00,0.0,0.0,0.0,0.0,0.0,0.0
2026-05-22 16:29:36.394170,1779481776.394170,-319266,-106298,164330361,50124,18137,-50006,61,eaebfe00,0.0,0.0,0.0,0.0,0.0,0.0
2026-05-22 16:29:36.394846,1779481776.394846,-336879,-157104,164408954,50236,16088,-32358,61,eaebfe00,0.0,0.0,0.0,0.0,0.0,0.0
2026-05-22 16:29:36.396700,1779481776.396700,-336879,-157104,164408954,50236,16088,-32358,61,eaebfe00,0.0,0.0,0.0,0.0,0.0,0.0
2026-05-22 16:29:36.397394,1779481776.397394,-347164,-154920,164446808,23888,34470,-27950,61,eaebfe00,0.0,0.0,0.0,0.0,0.0,0.0
2026-05-22 16:29:36.398253,1779481776.398253,-347164,-154920,164446808,23888,34470,-27950,61,eaebfe00,0.0,0.0,0.0,0.0,0.0,0.0
2026-05-22 16:29:36.398932,1779481776.398932,-354623,-169147,164438310,34052,30278,-9215,61,eaebfe00,0.0,0.0,0.0,0.0,0.0,0.0
2026-05-22 16:29:36.399788,1779481776.399788,-354623,-169147,164438310,34052,30278,-9215,61,eaebfe00,0.0,0.0,0.0,0.0,0.0,0.0
2026-05-22 16:29:36.400470,1779481776.400470,-291863,-149399,164414740,23752,57868,-13488,61,eaebfe00,0.0,0.0,0.0,0.0,0.0,0.0
2026-05-22 16:29:36.401334,1779481776.401334,-291863,-149399,164414740,23752,57868,-13488,61,eaebfe00,0.0,0.0,0.0,0.0,0.0,0.0
2026-05-22 16:29:36.402017,1779481776.402017,-321469,-164005,164415367,26745,36830,-16550,61,eaebfe00,0.0,0.0,0.0,0.0,0.0,0.0
2026-05-22 16:29:36.402874,1779481776.402874,-321469,-164005,164415367,26745,36830,-16550,61,eaebfe00,0.0,0.0,0.0,0.0,0.0,0.0
2026-05-22 16:29:36.403568,1779481776.403568,-307749,-183843,164417260,51611,53859,-15718,61,eaebfe00,0.0,0.0,0.0,0.0,0.0,0.0
2026-05-22 16:29:36.404457,1779481776.404457,-307749,-183843,164417260,51611,53859,-15718,61,eaebfe00,0.0,0.0,0.0,0.0,0.0,0.0
2026-05-22 16:29:36.405171,1779481776.405171,-338127,-190145,164408897,45487,26775,-33134,61,eaebfe00,0.0,0.0,0.0,0.0,0.0,0.0
2026-05-22 16:29:36.406065,1779481776.406065,-338127,-190145,164408897,45487,26775,-33134,61,eaebfe00,0.0,0.0,0.0,0.0,0.0,0.0
2026-05-22 16:29:36.406787,1779481776.406787,-324376,-206541,164401536,57908,32469,-34582,61,eaebfe00,0.0,0.0,0.0,0.0,0.0,0.0
2026-05-22 16:29:36.407660,1779481776.407660,-324376,-206541,164401536,57908,32469,-34582,61,eaebfe00,0.0,0.0,0.0,0.0,0.0,0.0
2026-05-22 16:29:36.408370,1779481776.408370,-318077,-242922,164395428,63202,27790,-49006,61,eaebfe00,0.0,0.0,0.0,0.0,0.0,0.0
2026-05-22 16:29:36.409285,1779481776.409285,-318077,-242922,164395428,63202,27790,-49006,61,eaebfe00,0.0,0.0,0.0,0.0,0.0,0.0
2026-05-22 16:29:36.410000,1779481776.410000,-330239,-229876,164408782,61443,48088,-37830,61,eaebfe00,0.0,0.0,0.0,0.0,0.0,0.0
2026-05-22 16:29:36.410879,1779481776.410879,-330239,-229876,164408782,61443,48088,-37830,61,eaebfe00,0.0,0.0,0.0,0.0,0.0,0.0
2026-05-22 16:29:36.411585,1779481776.411585,-336603,-212837,164419360,58709,36808,-51946,61,eaebfe00,0.0,0.0,0.0,0.0,0.0,0.0
2026-05-22 16:29:36.413476,1779481776.413476,-336603,-212837,164419360,58709,36808,-51946,61,eaebfe00,0.0,0.0,0.0,0.0,0.0,0.0
2026-05-22 16:29:36.414174,1779481776.414174,-297149,-190870,164445727,39959,12794,-32488,61,eaecfe00,0.0,0.0,0.0,0.0,0.0,0.0
2026-05-22 16:29:36.415046,1779481776.415046,-297149,-190870,164445727,39959,12794,-32488,61,eaecfe00,0.0,0.0,0.0,0.0,0.0,0.0
2026-05-22 16:29:36.415739,1779481776.415739,-276468,-177910,164436632,45972,-11917,-22869,61,eaebfe00,0.0,0.0,0.0,0.0,0.0,0.0
2026-05-22 16:29:36.416608,1779481776.416608,-276468,-177910,164436632,45972,-11917,-22869,61,eaebfe00,0.0,0.0,0.0,0.0,0.0,0.0
2026-05-22 16:29:36.417306,1779481776.417306,-222454,-200227,164431050,89092,24156,-13343,61,eaebfe00,0.0,0.0,0.0,0.0,0.0,0.0
2026-05-22 16:29:36.418196,1779481776.418196,-222454,-200227,164431050,89092,24156,-13343,61,eaebfe00,0.0,0.0,0.0,0.0,0.0,0.0
2026-05-22 16:29:36.418945,1779481776.418945,-219069,-146238,164403599,118858,46399,-9101,61,eaebfe00,0.0,0.0,0.0,0.0,0.0,0.0
2026-05-22 16:29:36.419851,1779481776.419851,-219069,-146238,164403599,118858,46399,-9101,61,eaebfe00,0.0,0.0,0.0,0.0,0.0,0.0
2026-05-22 16:29:36.420656,1779481776.420656,-277461,-145566,164389890,123568,57957,-22068,61,eaebfe00,0.0,0.0,0.0,0.0,0.0,0.0
2026-05-22 16:29:36.421682,1779481776.421682,-277461,-145566,164389890,123568,57957,-22068,61,eaebfe00,0.0,0.0,0.0,0.0,0.0,0.0
2026-05-22 16:29:36.422392,1779481776.422392,-341333,-137004,164404259,89730,48376,-29160,61,eaebfe00,0.0,0.0,0.0,0.0,0.0,0.0
2026-05-22 16:29:36.423446,1779481776.423446,-341333,-137004,164404259,89730,48376,-29160,61,eaebfe00,0.0,0.0,0.0,0.0,0.0,0.0
2026-05-22 16:29:36.424384,1779481776.424384,-348103,-162377,164429027,58719,29538,-57169,61,eaebfe00,0.0,0.0,0.0,0.0,0.0,0.0
2026-05-22 16:29:36.425482,1779481776.425482,-348103,-162377,164429027,58719,29538,-57169,61,eaebfe00,0.0,0.0,0.0,0.0,0.0,0.0
2026-05-22 16:29:36.426309,1779481776.426309,-341443,-150903,164432018,57540,57086,-37745,61,eaebfe00,0.0,0.0,0.0,0.0,0.0,0.0
2026-05-22 16:29:36.427362,1779481776.427362,-341443,-150903,164432018,57540,57086,-37745,61,eaebfe00,0.0,0.0,0.0,0.0,0.0,0.0
2026-05-22 16:29:36.428079,1779481776.428079,-310568,-156047,164416827,23426,55671,-45966,61,eaebfe00,0.0,0.0,0.0,0.0,0.0,0.0
2026-05-22 16:29:36.428938,1779481776.428938,-310568,-156047,164416827,23426,55671,-45966,61,eaebfe00,0.0,0.0,0.0,0.0,0.0,0.0
2026-05-22 16:29:36.429676,1779481776.429676,-334919,-143508,164391948,14591,54827,-38870,61,eaebfe00,0.0,0.0,0.0,0.0,0.0,0.0
2026-05-22 16:29:36.431509,1779481776.431509,-334919,-143508,164391948,14591,54827,-38870,61,eaebfe00,0.0,0.0,0.0,0.0,0.0,0.0
2026-05-22 16:29:36.432507,1779481776.432507,-319321,-159455,164332765,20203,54331,-56127,61,eaebfe00,0.0,0.0,0.0,0.0,0.0,0.0
2026-05-22 16:29:36.433361,1779481776.433361,-319321,-159455,164332765,20203,54331,-56127,61,eaebfe00,0.0,0.0,0.0,0.0,0.0,0.0
2026-05-22 16:29:36.434083,1779481776.434083,-294632,-153808,164324385,56350,37187,-67700,61,eaebfe00,0.0,0.0,0.0,0.0,0.0,0.0
2026-05-22 16:29:36.435114,1779481776.435114,-294632,-153808,164324385,56350,37187,-67700,61,eaebfe00,0.0,0.0,0.0,0.0,0.0,0.0
2026-05-22 16:29:36.435918,1779481776.435918,-285951,-156547,164309317,54995,40944,-82148,61,eaebfe00,0.0,0.0,0.0,0.0,0.0,0.0
2026-05-22 16:29:36.436900,1779481776.436900,-285951,-156547,164309317,54995,40944,-82148,61,eaebfe00,0.0,0.0,0.0,0.0,0.0,0.0
2026-05-22 16:29:36.437585,1779481776.437585,-279511,-147825,164383889,46227,48658,-84342,61,eaebfe00,0.0,0.0,0.0,0.0,0.0,0.0
2026-05-22 16:29:36.438457,1779481776.438457,-279511,-147825,164383889,46227,48658,-84342,61,eaebfe00,0.0,0.0,0.0,0.0,0.0,0.0
2026-05-22 16:29:36.439159,1779481776.439159,-315907,-172198,164335475,35840,60804,-84136,61,eaebfe00,0.0,0.0,0.0,0.0,0.0,0.0
2026-05-22 16:29:36.440211,1779481776.440211,-315907,-172198,164335475,35840,60804,-84136,61,eaebfe00,0.0,0.0,0.0,0.0,0.0,0.0
2026-05-22 16:29:36.441051,1779481776.441051,-303467,-172456,164372455,52810,69604,-67534,61,eaebfe00,0.0,0.0,0.0,0.0,0.0,0.0
2026-05-22 16:29:36.442073,1779481776.442073,-303467,-172456,164372455,52810,69604,-67534,61,eaebfe00,0.0,0.0,0.0,0.0,0.0,0.0
2026-05-22 16:29:36.442906,1779481776.442906,-309804,-171527,164337197,59753,70222,-27799,61,eaebfe00,0.0,0.0,0.0,0.0,0.0,0.0
2026-05-22 16:29:36.443728,1779481776.443728,-309804,-171527,164337197,59753,70222,-27799,61,eaebfe00,0.0,0.0,0.0,0.0,0.0,0.0
2026-05-22 16:29:36.444377,1779481776.444377,-292062,-175603,164375394,67693,54022,-12926,61,eaecfe00,0.0,0.0,0.0,0.0,0.0,0.0
2026-05-22 16:29:36.445165,1779481776.445165,-292062,-175603,164375394,67693,54022,-12926,61,eaecfe00,0.0,0.0,0.0,0.0,0.0,0.0
2026-05-22 16:29:36.445813,1779481776.445813,-339127,-166807,164384668,50227,37218,-2729,61,eaebfe00,0.0,0.0,0.0,0.0,0.0,0.0
2026-05-22 16:29:36.446630,1779481776.446630,-339127,-166807,164384668,50227,37218,-2729,61,eaebfe00,0.0,0.0,0.0,0.0,0.0,0.0
2026-05-22 16:29:36.447275,1779481776.447275,-370691,-190644,164423837,71261,18654,-22378,61,eaecfe00,0.0,0.0,0.0,0.0,0.0,0.0
2026-05-22 16:29:36.449009,1779481776.449009,-370691,-190644,164423837,71261,18654,-22378,61,eaecfe00,0.0,0.0,0.0,0.0,0.0,0.0
2026-05-22 16:29:36.449660,1779481776.449660,-380555,-176259,164406646,47926,9950,-33508,61,eaecfe00,0.0,0.0,0.0,0.0,0.0,0.0
2026-05-22 16:29:36.450455,1779481776.450455,-380555,-176259,164406646,47926,9950,-33508,61,eaecfe00,0.0,0.0,0.0,0.0,0.0,0.0
2026-05-22 16:29:36.451097,1779481776.451097,-375085,-156515,164412160,68496,12739,-28683,61,eaecfe00,0.0,0.0,0.0,0.0,0.0,0.0
2026-05-22 16:29:36.451962,1779481776.451962,-375085,-156515,164412160,68496,12739,-28683,61,eaecfe00,0.0,0.0,0.0,0.0,0.0,0.0
2026-05-22 16:29:36.452773,1779481776.452773,-340046,-88178,164391079,38650,21555,-37335,61,eaecfe00,0.0,0.0,0.0,0.0,0.0,0.0
2026-05-22 16:29:36.453610,1779481776.453610,-340046,-88178,164391079,38650,21555,-37335,61,eaecfe00,0.0,0.0,0.0,0.0,0.0,0.0
2026-05-22 16:29:36.454281,1779481776.454281,-297264,-75298,164371105,30765,49367,-15621,61,eaecfe00,0.0,0.0,0.0,0.0,0.0,0.0
2026-05-22 16:29:36.456585,1779481776.456585,-297264,-75298,164371105,30765,49367,-15621,61,eaecfe00,0.0,0.0,0.0,0.0,0.0,0.0
2026-05-22 16:29:36.458094,1779481776.458094,-281935,-82883,164373262,15740,64292,-19445,61,eaebfe00,0.0,0.0,0.0,0.0,0.0,0.0
2026-05-22 16:29:36.459196,1779481776.459196,-281935,-82883,164373262,15740,64292,-19445,61,eaebfe00,0.0,0.0,0.0,0.0,0.0,0.0
2026-05-22 16:29:36.459895,1779481776.459895,-260137,-158341,164417810,34661,62659,-12793,61,eaebfe00,0.0,0.0,0.0,0.0,0.0,0.0
2026-05-22 16:29:36.460735,1779481776.460735,-260137,-158341,164417810,34661,62659,-12793,61,eaebfe00,0.0,0.0,0.0,0.0,0.0,0.0
2026-05-22 16:29:36.461398,1779481776.461398,-277561,-172576,164423631,46538,47731,-24805,61,eaebfe00,0.0,0.0,0.0,0.0,0.0,0.0
2026-05-22 16:29:36.462225,1779481776.462225,-277561,-172576,164423631,46538,47731,-24805,61,eaebfe00,0.0,0.0,0.0,0.0,0.0,0.0
2026-05-22 16:29:36.462915,1779481776.462915,-250953,-168648,164404726,48846,33107,-54487,61,eaebfe00,0.0,0.0,0.0,0.0,0.0,0.0
2026-05-22 16:29:36.463753,1779481776.463753,-250953,-168648,164404726,48846,33107,-54487,61,eaebfe00,0.0,0.0,0.0,0.0,0.0,0.0
2026-05-22 16:29:36.464417,1779481776.464417,-247868,-158775,164372189,34388,33692,-50421,61,eaebfe00,0.0,0.0,0.0,0.0,0.0,0.0
2026-05-22 16:29:36.465285,1779481776.465285,-247868,-158775,164372189,34388,33692,-50421,61,eaebfe00,0.0,0.0,0.0,0.0,0.0,0.0
2026-05-22 16:29:36.465940,1779481776.465940,-266706,-141598,164370068,30880,46496,-36731,61,eaebfe00,0.0,0.0,0.0,0.0,0.0,0.0
2026-05-22 16:29:36.467668,1779481776.467668,-266706,-141598,164370068,30880,46496,-36731,61,eaebfe00,0.0,0.0,0.0,0.0,0.0,0.0
2026-05-22 16:29:36.468479,1779481776.468479,-340169,-153551,164406474,43028,47712,-4966,61,eaebfe00,0.0,0.0,0.0,0.0,0.0,0.0
2026-05-22 16:29:36.469419,1779481776.469419,-340169,-153551,164406474,43028,47712,-4966,61,eaebfe00,0.0,0.0,0.0,0.0,0.0,0.0
2026-05-22 16:29:36.470275,1779481776.470275,-345134,-150404,164446305,55795,43122,-15953,61,eaebfe00,0.0,0.0,0.0,0.0,0.0,0.0
2026-05-22 16:29:36.471359,1779481776.471359,-345134,-150404,164446305,55795,43122,-15953,61,eaebfe00,0.0,0.0,0.0,0.0,0.0,0.0
2026-05-22 16:29:36.472237,1779481776.472237,-358536,-151070,164441367,73095,42380,-34903,61,eaebfe00,0.0,0.0,0.0,0.0,0.0,0.0
2026-05-22 16:29:36.473318,1779481776.473318,-358536,-151070,164441367,73095,42380,-34903,61,eaebfe00,0.0,0.0,0.0,0.0,0.0,0.0
2026-05-22 16:29:36.474142,1779481776.474142,-320652,-177255,164400070,74212,44536,-52329,61,eaebfe00,0.0,0.0,0.0,0.0,0.0,0.0
2026-05-22 16:29:36.475187,1779481776.475187,-320652,-177255,164400070,74212,44536,-52329,61,eaebfe00,0.0,0.0,0.0,0.0,0.0,0.0
2026-05-22 16:29:36.476027,1779481776.476027,-316553,-155911,164396083,84769,24977,-43320,61,eaebfe00,0.0,0.0,0.0,0.0,0.0,0.0
2026-05-22 16:29:36.476978,1779481776.476978,-316553,-155911,164396083,84769,24977,-43320,61,eaebfe00,0.0,0.0,0.0,0.0,0.0,0.0
2026-05-22 16:29:36.477618,1779481776.477618,-289899,-160042,164390679,65279,22732,-45021,61,eaebfe00,0.0,0.0,0.0,0.0,0.0,0.0
2026-05-22 16:29:36.478451,1779481776.478451,-289899,-160042,164390679,65279,22732,-45021,61,eaebfe00,0.0,0.0,0.0,0.0,0.0,0.0
2026-05-22 16:29:36.479102,1779481776.479102,-281666,-155760,164438952,52206,53755,-37583,61,eaebfe00,0.0,0.0,0.0,0.0,0.0,0.0
2026-05-22 16:29:36.479914,1779481776.479914,-281666,-155760,164438952,52206,53755,-37583,61,eaebfe00,0.0,0.0,0.0,0.0,0.0,0.0
2026-05-22 16:29:36.480575,1779481776.480575,-278259,-127206,164428476,24871,57393,-35988,61,eaebfe00,0.0,0.0,0.0,0.0,0.0,0.0
2026-05-22 16:29:36.481403,1779481776.481403,-278259,-127206,164428476,24871,57393,-35988,61,eaebfe00,0.0,0.0,0.0,0.0,0.0,0.0
2026-05-22 16:29:36.482050,1779481776.482050,-294824,-157453,164430009,29212,72298,-27128,61,eaebfe00,0.0,0.0,0.0,0.0,0.0,0.0
2026-05-22 16:29:36.482864,1779481776.482864,-294824,-157453,164430009,29212,72298,-27128,61,eaebfe00,0.0,0.0,0.0,0.0,0.0,0.0
2026-05-22 16:29:36.483529,1779481776.483529,-290164,-107215,164473130,38011,53978,-23600,61,eaebfe00,0.0,0.0,0.0,0.0,0.0,0.0
2026-05-22 16:29:36.485313,1779481776.485313,-290164,-107215,164473130,38011,53978,-23600,61,eaebfe00,0.0,0.0,0.0,0.0,0.0,0.0
2026-05-22 16:29:36.485986,1779481776.485986,-320007,-115401,164442983,67247,40407,-34078,61,eaebfe00,0.0,0.0,0.0,0.0,0.0,0.0
2026-05-22 16:29:36.486954,1779481776.486954,-320007,-115401,164442983,67247,40407,-34078,61,eaebfe00,0.0,0.0,0.0,0.0,0.0,0.0
2026-05-22 16:29:36.487776,1779481776.487776,-297747,-76874,164416408,59619,61326,-49972,61,eaebfe00,0.0,0.0,0.0,0.0,0.0,0.0
2026-05-22 16:29:36.488767,1779481776.488767,-297747,-76874,164416408,59619,61326,-49972,61,eaebfe00,0.0,0.0,0.0,0.0,0.0,0.0
2026-05-22 16:29:36.489577,1779481776.489577,-276516,-120550,164388932,53851,58476,-36232,61,eaebfe00,0.0,0.0,0.0,0.0,0.0,0.0
2026-05-22 16:29:36.490690,1779481776.490690,-276516,-120550,164388932,53851,58476,-36232,61,eaebfe00,0.0,0.0,0.0,0.0,0.0,0.0
2026-05-22 16:29:36.491569,1779481776.491569,-255109,-137746,164399800,61224,69367,-61382,61,eaebfe00,0.0,0.0,0.0,0.0,0.0,0.0
2026-05-22 16:29:36.492564,1779481776.492564,-255109,-137746,164399800,61224,69367,-61382,61,eaebfe00,0.0,0.0,0.0,0.0,0.0,0.0
2026-05-22 16:29:36.493389,1779481776.493389,-263303,-171691,164443832,96459,74082,-56336,61,eaebfe00,0.0,0.0,0.0,0.0,0.0,0.0
2026-05-22 16:29:36.494338,1779481776.494338,-263303,-171691,164443832,96459,74082,-56336,61,eaebfe00,0.0,0.0,0.0,0.0,0.0,0.0
2026-05-22 16:29:36.495016,1779481776.495016,-284300,-167006,164433689,109988,62786,-31918,61,eaebfe00,0.0,0.0,0.0,0.0,0.0,0.0
2026-05-22 16:29:36.495836,1779481776.495836,-284300,-167006,164433689,109988,62786,-31918,61,eaebfe00,0.0,0.0,0.0,0.0,0.0,0.0
2026-05-22 16:29:36.496483,1779481776.496483,-291675,-159030,164387186,100069,61986,-14873,61,eaebfe00,0.0,0.0,0.0,0.0,0.0,0.0
2026-05-22 16:29:36.497249,1779481776.497249,-291675,-159030,164387186,100069,61986,-14873,61,eaebfe00,0.0,0.0,0.0,0.0,0.0,0.0
2026-05-22 16:29:36.497938,1779481776.497938,-289542,-169300,164375642,95474,48331,-10760,61,eaebfe00,0.0,0.0,0.0,0.0,0.0,0.0
2026-05-22 16:29:36.498775,1779481776.498775,-289542,-169300,164375642,95474,48331,-10760,61,eaebfe00,0.0,0.0,0.0,0.0,0.0,0.0
2026-05-22 16:29:36.499534,1779481776.499534,-263441,-174922,164363730,92360,59422,-25257,61,eaebfe00,0.0,0.0,0.0,0.0,0.0,0.0
2026-05-22 16:29:36.500446,1779481776.500446,-263441,-174922,164363730,92360,59422,-25257,61,eaebfe00,0.0,0.0,0.0,0.0,0.0,0.0
2026-05-22 16:29:36.501236,1779481776.501236,-278274,-146551,164382133,100160,68346,-36001,61,eaebfe00,0.0,0.0,0.0,0.0,0.0,0.0
2026-05-22 16:29:36.503529,1779481776.503529,-278274,-146551,164382133,100160,68346,-36001,61,eaebfe00,0.0,0.0,0.0,0.0,0.0,0.0
2026-05-22 16:29:36.504236,1779481776.504236,-320372,-111855,164360893,99435,53156,-32630,61,eaebfe00,0.0,0.0,0.0,0.0,0.0,0.0
2026-05-22 16:29:36.505185,1779481776.505185,-320372,-111855,164360893,99435,53156,-32630,61,eaebfe00,0.0,0.0,0.0,0.0,0.0,0.0
2026-05-22 16:29:36.506086,1779481776.506086,-383295,-122387,164380978,84175,49854,-25737,61,eaebfe00,0.0,0.0,0.0,0.0,0.0,0.0
2026-05-22 16:29:36.507240,1779481776.507240,-383295,-122387,164380978,84175,49854,-25737,61,eaebfe00,0.0,0.0,0.0,0.0,0.0,0.0
2026-05-22 16:29:36.508201,1779481776.508201,-411858,-159389,164403835,100863,55658,-37969,61,eaebfe00,0.0,0.0,0.0,0.0,0.0,0.0
2026-05-22 16:29:36.509408,1779481776.509408,-411858,-159389,164403835,100863,55658,-37969,61,eaebfe00,0.0,0.0,0.0,0.0,0.0,0.0
2026-05-22 16:29:36.510270,1779481776.510270,-344425,-154564,164408247,73384,79605,-38436,61,eaebfe00,0.0,0.0,0.0,0.0,0.0,0.0
2026-05-22 16:29:36.511198,1779481776.511198,-344425,-154564,164408247,73384,79605,-38436,61,eaebfe00,0.0,0.0,0.0,0.0,0.0,0.0
2026-05-22 16:29:36.511933,1779481776.511933,-306329,-138423,164401568,64988,71369,-53732,61,eaebfe00,0.0,0.0,0.0,0.0,0.0,0.0
2026-05-22 16:29:36.512889,1779481776.512889,-306329,-138423,164401568,64988,71369,-53732,61,eaebfe00,0.0,0.0,0.0,0.0,0.0,0.0
2026-05-22 16:29:36.513642,1779481776.513642,-295429,-128978,164397776,44595,62093,-45790,61,eaebfe00,0.0,0.0,0.0,0.0,0.0,0.0
2026-05-22 16:29:36.514495,1779481776.514495,-295429,-128978,164397776,44595,62093,-45790,61,eaebfe00,0.0,0.0,0.0,0.0,0.0,0.0
2026-05-22 16:29:36.515215,1779481776.515215,-288918,-143838,164401718,55827,52761,-57198,61,eaebfe00,0.0,0.0,0.0,0.0,0.0,0.0
2026-05-22 16:29:36.516134,1779481776.516134,-288918,-143838,164401718,55827,52761,-57198,61,eaebfe00,0.0,0.0,0.0,0.0,0.0,0.0
2026-05-22 16:29:36.516855,1779481776.516855,-319935,-147929,164406379,49576,41463,-54856,61,eaebfe00,0.0,0.0,0.0,0.0,0.0,0.0
2026-05-22 16:29:36.517802,1779481776.517802,-319935,-147929,164406379,49576,41463,-54856,61,eaebfe00,0.0,0.0,0.0,0.0,0.0,0.0
2026-05-22 16:29:36.518749,1779481776.518749,-353701,-127376,164395331,65672,29536,-83295,61,eaebfe00,0.0,0.0,0.0,0.0,0.0,0.0
2026-05-22 16:29:36.519893,1779481776.519893,-353701,-127376,164395331,65672,29536,-83295,61,eaebfe00,0.0,0.0,0.0,0.0,0.0,0.0
2026-05-22 16:29:36.520803,1779481776.520803,-415171,-87807,164377705,56904,27483,-67029,61,eaebfe00,0.0,0.0,0.0,0.0,0.0,0.0
2026-05-22 16:29:36.523350,1779481776.523350,-415171,-87807,164377705,56904,27483,-67029,61,eaebfe00,0.0,0.0,0.0,0.0,0.0,0.0
2026-05-22 16:29:36.524381,1779481776.524381,-399216,-69217,164398933,53600,47283,-69967,61,eaebfe00,0.0,0.0,0.0,0.0,0.0,0.0
2026-05-22 16:29:36.525525,1779481776.525525,-399216,-69217,164398933,53600,47283,-69967,61,eaebfe00,0.0,0.0,0.0,0.0,0.0,0.0
2026-05-22 16:29:36.526498,1779481776.526498,-338027,-75689,164421377,57308,66290,-37148,61,eaebfe00,0.0,0.0,0.0,0.0,0.0,0.0
2026-05-22 16:29:36.527692,1779481776.527692,-338027,-75689,164421377,57308,66290,-37148,61,eaebfe00,0.0,0.0,0.0,0.0,0.0,0.0
2026-05-22 16:29:36.528739,1779481776.528739,-304273,-128143,164459148,66073,62860,-23910,61,eaebfe00,0.0,0.0,0.0,0.0,0.0,0.0
2026-05-22 16:29:36.529634,1779481776.529634,-304273,-128143,164459148,66073,62860,-23910,61,eaebfe00,0.0,0.0,0.0,0.0,0.0,0.0
2026-05-22 16:29:36.530369,1779481776.530369,-282743,-151579,164456488,38737,52313,-27190,61,eaebfe00,0.0,0.0,0.0,0.0,0.0,0.0
2026-05-22 16:29:36.531269,1779481776.531269,-282743,-151579,164456488,38737,52313,-27190,61,eaebfe00,0.0,0.0,0.0,0.0,0.0,0.0
2026-05-22 16:29:36.532138,1779481776.532138,-271641,-161577,164434384,53034,33423,-46027,61,eaebfe00,0.0,0.0,0.0,0.0,0.0,0.0
2026-05-22 16:29:36.533363,1779481776.533363,-271641,-161577,164434384,53034,33423,-46027,61,eaebfe00,0.0,0.0,0.0,0.0,0.0,0.0
2026-05-22 16:29:36.534332,1779481776.534332,-255157,-152315,164403528,54594,31460,-56918,61,eaebfe00,0.0,0.0,0.0,0.0,0.0,0.0
2026-05-22 16:29:36.535528,1779481776.535528,-255157,-152315,164403528,54594,31460,-56918,61,eaebfe00,0.0,0.0,0.0,0.0,0.0,0.0
2026-05-22 16:29:36.536502,1779481776.536502,-293197,-158933,164409222,48762,31104,-42497,61,eaecfe00,0.0,0.0,0.0,0.0,0.0,0.0
2026-05-22 16:29:36.537680,1779481776.537680,-293197,-158933,164409222,48762,31104,-42497,61,eaecfe00,0.0,0.0,0.0,0.0,0.0,0.0
2026-05-22 16:29:36.538698,1779481776.538698,-269119,-148682,164448413,25235,39663,-26383,61,eaecfe00,0.0,0.0,0.0,0.0,0.0,0.0
2026-05-22 16:29:36.539852,1779481776.539852,-269119,-148682,164448413,25235,39663,-26383,61,eaecfe00,0.0,0.0,0.0,0.0,0.0,0.0
2026-05-22 16:29:36.540832,1779481776.540832,-300153,-131914,164431838,20962,45496,-34539,61,eaecfe00,0.0,0.0,0.0,0.0,0.0,0.0
2026-05-22 16:29:36.542517,1779481776.542517,-300153,-131914,164431838,20962,45496,-34539,61,eaecfe00,0.0,0.0,0.0,0.0,0.0,0.0
2026-05-22 16:29:36.543410,1779481776.543410,-275698,-164985,164396104,42396,28295,-45963,61,eaebfe00,0.0,0.0,0.0,0.0,0.0,0.0
2026-05-22 16:29:36.545267,1779481776.545267,-275698,-164985,164396104,42396,28295,-45963,61,eaebfe00,0.0,0.0,0.0,0.0,0.0,0.0
2026-05-22 16:29:36.545952,1779481776.545952,-328826,-191512,164333756,60860,37132,-55108,61,eaecfe00,0.0,0.0,0.0,0.0,0.0,0.0
2026-05-22 16:29:36.546761,1779481776.546761,-328826,-191512,164333756,60860,37132,-55108,61,eaecfe00,0.0,0.0,0.0,0.0,0.0,0.0
2026-05-22 16:29:36.547418,1779481776.547418,-328201,-195088,164352268,70560,24183,-56611,61,eaebfe00,0.0,0.0,0.0,0.0,0.0,0.0
2026-05-22 16:29:36.548213,1779481776.548213,-328201,-195088,164352268,70560,24183,-56611,61,eaebfe00,0.0,0.0,0.0,0.0,0.0,0.0
2026-05-22 16:29:36.548863,1779481776.548863,-310760,-161099,164368009,62111,26582,-74904,61,eaebfe00,0.0,0.0,0.0,0.0,0.0,0.0
2026-05-22 16:29:36.549708,1779481776.549708,-310760,-161099,164368009,62111,26582,-74904,61,eaebfe00,0.0,0.0,0.0,0.0,0.0,0.0
2026-05-22 16:29:36.550370,1779481776.550370,-319024,-117456,164432964,65417,27662,-56571,61,eaebfe00,0.0,0.0,0.0,0.0,0.0,0.0
2026-05-22 16:29:36.551231,1779481776.551231,-319024,-117456,164432964,65417,27662,-56571,61,eaebfe00,0.0,0.0,0.0,0.0,0.0,0.0
2026-05-22 16:29:36.552049,1779481776.552049,-343164,-102883,164402329,56180,38011,-30733,61,eaebfe00,0.0,0.0,0.0,0.0,0.0,0.0
2026-05-22 16:29:36.553017,1779481776.553017,-343164,-102883,164402329,56180,38011,-30733,61,eaebfe00,0.0,0.0,0.0,0.0,0.0,0.0
2026-05-22 16:29:36.553697,1779481776.553697,-357388,-78491,164401449,56240,50754,-24500,61,eaebfe00,0.0,0.0,0.0,0.0,0.0,0.0
2026-05-22 16:29:36.554648,1779481776.554648,-357388,-78491,164401449,56240,50754,-24500,61,eaebfe00,0.0,0.0,0.0,0.0,0.0,0.0
2026-05-22 16:29:36.555473,1779481776.555473,-383514,-121416,164320657,41377,46331,-27819,61,eaebfe00,0.0,0.0,0.0,0.0,0.0,0.0
2026-05-22 16:29:36.556566,1779481776.556566,-383514,-121416,164320657,41377,46331,-27819,61,eaebfe00,0.0,0.0,0.0,0.0,0.0,0.0
2026-05-22 16:29:36.557422,1779481776.557422,-362433,-153560,164299211,52042,47077,-34286,61,eaebfe00,0.0,0.0,0.0,0.0,0.0,0.0
2026-05-22 16:29:36.558374,1779481776.558374,-362433,-153560,164299211,52042,47077,-34286,61,eaebfe00,0.0,0.0,0.0,0.0,0.0,0.0
2026-05-22 16:29:36.559124,1779481776.559124,-386982,-166571,164330103,48936,48927,-29390,61,eaebfe00,0.0,0.0,0.0,0.0,0.0,0.0
2026-05-22 16:29:36.560011,1779481776.560011,-386982,-166571,164330103,48936,48927,-29390,61,eaebfe00,0.0,0.0,0.0,0.0,0.0,0.0
2026-05-22 16:29:36.560681,1779481776.560681,-343409,-172072,164387935,45941,68714,-20143,61,eaecfe00,0.0,0.0,0.0,0.0,0.0,0.0
2026-05-22 16:29:36.561452,1779481776.561452,-343409,-172072,164387935,45941,68714,-20143,61,eaecfe00,0.0,0.0,0.0,0.0,0.0,0.0
2026-05-22 16:29:36.562243,1779481776.562243,-366100,-134977,164361841,67163,51004,-50349,61,eaebfe00,0.0,0.0,0.0,0.0,0.0,0.0
2026-05-22 16:29:36.563036,1779481776.563036,-366100,-134977,164361841,67163,51004,-50349,61,eaebfe00,0.0,0.0,0.0,0.0,0.0,0.0
2026-05-22 16:29:36.563663,1779481776.563663,-326554,-127893,164349633,85862,33222,-65612,61,eaebfe00,0.0,0.0,0.0,0.0,0.0,0.0
2026-05-22 16:29:36.564492,1779481776.564492,-326554,-127893,164349633,85862,33222,-65612,61,eaebfe00,0.0,0.0,0.0,0.0,0.0,0.0
2026-05-22 16:29:36.565134,1779481776.565134,-267761,-101730,164362139,80367,39314,-61070,61,eaebfe00,0.0,0.0,0.0,0.0,0.0,0.0
2026-05-22 16:29:36.566007,1779481776.566007,-267761,-101730,164362139,80367,39314,-61070,61,eaebfe00,0.0,0.0,0.0,0.0,0.0,0.0
2026-05-22 16:29:36.566686,1779481776.566686,-272196,-104976,164385433,67317,40081,-48334,61,eaebfe00,0.0,0.0,0.0,0.0,0.0,0.0
2026-05-22 16:29:36.570184,1779481776.570184,-272196,-104976,164385433,67317,40081,-48334,61,eaebfe00,0.0,0.0,0.0,0.0,0.0,0.0
2026-05-22 16:29:36.571143,1779481776.571143,-294630,-134005,164411528,52334,43411,-38981,61,eaebfe00,0.0,0.0,0.0,0.0,0.0,0.0
2026-05-22 16:29:36.572157,1779481776.572157,-294630,-134005,164411528,52334,43411,-38981,61,eaebfe00,0.0,0.0,0.0,0.0,0.0,0.0
2026-05-22 16:29:36.573033,1779481776.573033,-313917,-153800,164446133,41040,35399,-32041,61,eaebfe00,0.0,0.0,0.0,0.0,0.0,0.0
2026-05-22 16:29:36.574196,1779481776.574196,-313917,-153800,164446133,41040,35399,-32041,61,eaebfe00,0.0,0.0,0.0,0.0,0.0,0.0
2026-05-22 16:29:36.576922,1779481776.576922,-305013,-185724,164444776,25403,47340,-38774,61,eaebfe00,0.0,0.0,0.0,0.0,0.0,0.0
2026-05-22 16:29:36.578025,1779481776.578025,-305013,-185724,164444776,25403,47340,-38774,61,eaebfe00,0.0,0.0,0.0,0.0,0.0,0.0
2026-05-22 16:29:36.579741,1779481776.579741,-313756,-178046,164418804,28437,52055,-31692,61,eaebfe00,0.0,0.0,0.0,0.0,0.0,0.0
2026-05-22 16:29:36.581704,1779481776.581704,-313756,-178046,164418804,28437,52055,-31692,61,eaebfe00,0.0,0.0,0.0,0.0,0.0,0.0
2026-05-22 16:29:36.583391,1779481776.583391,-337455,-129754,164415014,33285,49635,-28112,61,eaebfe00,0.0,0.0,0.0,0.0,0.0,0.0
2026-05-22 16:29:36.585788,1779481776.585788,-337455,-129754,164415014,33285,49635,-28112,61,eaebfe00,0.0,0.0,0.0,0.0,0.0,0.0
2026-05-22 16:29:36.587658,1779481776.587658,-350969,-129367,164394561,38343,44121,-46097,61,eaebfe00,0.0,0.0,0.0,0.0,0.0,0.0
2026-05-22 16:29:36.588933,1779481776.588933,-350969,-129367,164394561,38343,44121,-46097,61,eaebfe00,0.0,0.0,0.0,0.0,0.0,0.0
2026-05-22 16:29:36.589838,1779481776.589838,-324328,-138546,164386896,62818,46264,-35009,61,eaebfe00,0.0,0.0,0.0,0.0,0.0,0.0
2026-05-22 16:29:36.591354,1779481776.591354,-324328,-138546,164386896,62818,46264,-35009,61,eaebfe00,0.0,0.0,0.0,0.0,0.0,0.0
2026-05-22 16:29:36.592329,1779481776.592329,-338785,-159670,164362652,41717,45822,-41337,61,eaebfe00,0.0,0.0,0.0,0.0,0.0,0.0
2026-05-22 16:29:36.593274,1779481776.593274,-338785,-159670,164362652,41717,45822,-41337,61,eaebfe00,0.0,0.0,0.0,0.0,0.0,0.0
2026-05-22 16:29:36.593983,1779481776.593983,-343801,-174473,164379921,48129,43979,-42230,61,eaebfe00,0.0,0.0,0.0,0.0,0.0,0.0
2026-05-22 16:29:36.594881,1779481776.594881,-343801,-174473,164379921,48129,43979,-42230,61,eaebfe00,0.0,0.0,0.0,0.0,0.0,0.0
2026-05-22 16:29:36.595571,1779481776.595571,-339512,-184926,164419427,29906,47246,-32055,61,eaebfe00,0.0,0.0,0.0,0.0,0.0,0.0
2026-05-22 16:29:36.597671,1779481776.597671,-339512,-184926,164419427,29906,47246,-32055,61,eaebfe00,0.0,0.0,0.0,0.0,0.0,0.0
2026-05-22 16:29:36.598413,1779481776.598413,-331756,-185067,164442414,45349,47027,-45101,61,eaebfe00,0.0,0.0,0.0,0.0,0.0,0.0
2026-05-22 16:29:36.599418,1779481776.599418,-331756,-185067,164442414,45349,47027,-45101,61,eaebfe00,0.0,0.0,0.0,0.0,0.0,0.0
2026-05-22 16:29:36.600440,1779481776.600440,-348109,-169911,164434769,51736,46472,-36810,61,eaebfe00,0.0,0.0,0.0,0.0,0.0,0.0
2026-05-22 16:29:36.601534,1779481776.601534,-348109,-169911,164434769,51736,46472,-36810,61,eaebfe00,0.0,0.0,0.0,0.0,0.0,0.0
2026-05-22 16:29:36.602486,1779481776.602486,-387284,-137457,164400744,45223,33979,-46506,61,eaebfe00,0.0,0.0,0.0,0.0,0.0,0.0
2026-05-22 16:29:36.603597,1779481776.603597,-387284,-137457,164400744,45223,33979,-46506,61,eaebfe00,0.0,0.0,0.0,0.0,0.0,0.0
2026-05-22 16:29:36.604639,1779481776.604639,-431151,-168665,164362119,23043,32636,-43057,61,eaebfe00,0.0,0.0,0.0,0.0,0.0,0.0
2026-05-22 16:29:36.605896,1779481776.605896,-431151,-168665,164362119,23043,32636,-43057,61,eaebfe00,0.0,0.0,0.0,0.0,0.0,0.0
2026-05-22 16:29:36.606834,1779481776.606834,-362510,-187740,164312164,30208,26450,-39394,61,eaecfe00,0.0,0.0,0.0,0.0,0.0,0.0
2026-05-22 16:29:36.608095,1779481776.608095,-362510,-187740,164312164,30208,26450,-39394,61,eaecfe00,0.0,0.0,0.0,0.0,0.0,0.0
2026-05-22 16:29:36.609027,1779481776.609027,-274122,-234693,164332136,28296,2758,-55920,61,eaebfe00,0.0,0.0,0.0,0.0,0.0,0.0
2026-05-22 16:29:36.609974,1779481776.609974,-274122,-234693,164332136,28296,2758,-55920,61,eaebfe00,0.0,0.0,0.0,0.0,0.0,0.0
2026-05-22 16:29:36.610655,1779481776.610655,-247223,-216563,164401114,51568,17160,-45378,61,eaebfe00,0.0,0.0,0.0,0.0,0.0,0.0
2026-05-22 16:29:36.611526,1779481776.611526,-247223,-216563,164401114,51568,17160,-45378,61,eaebfe00,0.0,0.0,0.0,0.0,0.0,0.0
2026-05-22 16:29:36.612219,1779481776.612219,-254276,-185466,164409970,69827,28573,-62968,61,eaebfe00,0.0,0.0,0.0,0.0,0.0,0.0
2026-05-22 16:29:36.613263,1779481776.613263,-254276,-185466,164409970,69827,28573,-62968,61,eaebfe00,0.0,0.0,0.0,0.0,0.0,0.0
2026-05-22 16:29:36.614190,1779481776.614190,-283531,-172098,164429922,90774,61570,-54351,61,eaecfe00,0.0,0.0,0.0,0.0,0.0,0.0
2026-05-22 16:29:36.615147,1779481776.615147,-283531,-172098,164429922,90774,61570,-54351,61,eaecfe00,0.0,0.0,0.0,0.0,0.0,0.0
2026-05-22 16:29:36.615845,1779481776.615845,-297580,-156966,164367448,93851,61294,-42043,61,eaebfe00,0.0,0.0,0.0,0.0,0.0,0.0
2026-05-22 16:29:36.617636,1779481776.617636,-297580,-156966,164367448,93851,61294,-42043,61,eaebfe00,0.0,0.0,0.0,0.0,0.0,0.0
2026-05-22 16:29:36.618335,1779481776.618335,-321552,-135039,164385136,74920,61703,-23460,61,eaebfe00,0.0,0.0,0.0,0.0,0.0,0.0
2026-05-22 16:29:36.619231,1779481776.619231,-321552,-135039,164385136,74920,61703,-23460,61,eaebfe00,0.0,0.0,0.0,0.0,0.0,0.0
2026-05-22 16:29:36.620148,1779481776.620148,-336131,-146665,164370672,56752,46618,-39176,61,eaebfe00,0.0,0.0,0.0,0.0,0.0,0.0
2026-05-22 16:29:36.621142,1779481776.621142,-336131,-146665,164370672,56752,46618,-39176,61,eaebfe00,0.0,0.0,0.0,0.0,0.0,0.0
2026-05-22 16:29:36.622056,1779481776.622056,-350497,-228932,164403883,55105,50397,-29652,61,eaebfe00,0.0,0.0,0.0,0.0,0.0,0.0
2026-05-22 16:29:36.623157,1779481776.623157,-350497,-228932,164403883,55105,50397,-29652,61,eaebfe00,0.0,0.0,0.0,0.0,0.0,0.0
2026-05-22 16:29:36.624033,1779481776.624033,-352780,-243109,164444669,50528,42955,-36518,61,eaebfe00,0.0,0.0,0.0,0.0,0.0,0.0
2026-05-22 16:29:36.625100,1779481776.625100,-352780,-243109,164444669,50528,42955,-36518,61,eaebfe00,0.0,0.0,0.0,0.0,0.0,0.0
2026-05-22 16:29:36.625972,1779481776.625972,-344451,-212858,164453442,52637,41640,-2104,61,eaebfe00,0.0,0.0,0.0,0.0,0.0,0.0
2026-05-22 16:29:36.627048,1779481776.627048,-344451,-212858,164453442,52637,41640,-2104,61,eaebfe00,0.0,0.0,0.0,0.0,0.0,0.0
2026-05-22 16:29:36.627905,1779481776.627905,-300898,-164936,164435533,32151,39416,-20190,61,eaebfe00,0.0,0.0,0.0,0.0,0.0,0.0
2026-05-22 16:29:36.628782,1779481776.628782,-300898,-164936,164435533,32151,39416,-20190,61,eaebfe00,0.0,0.0,0.0,0.0,0.0,0.0
2026-05-22 16:29:36.629483,1779481776.629483,-277926,-135302,164382403,47718,24040,-23238,61,eaebfe00,0.0,0.0,0.0,0.0,0.0,0.0
2026-05-22 16:29:36.630567,1779481776.630567,-277926,-135302,164382403,47718,24040,-23238,61,eaebfe00,0.0,0.0,0.0,0.0,0.0,0.0
2026-05-22 16:29:36.631309,1779481776.631309,-309693,-124946,164344543,41801,43393,-41342,61,eaebfe00,0.0,0.0,0.0,0.0,0.0,0.0
2026-05-22 16:29:36.632125,1779481776.632125,-309693,-124946,164344543,41801,43393,-41342,61,eaebfe00,0.0,0.0,0.0,0.0,0.0,0.0
2026-05-22 16:29:36.632807,1779481776.632807,-341772,-137272,164354199,48488,35095,-41313,61,eaebfe00,0.0,0.0,0.0,0.0,0.0,0.0
2026-05-22 16:29:36.633670,1779481776.633670,-341772,-137272,164354199,48488,35095,-41313,61,eaebfe00,0.0,0.0,0.0,0.0,0.0,0.0
2026-05-22 16:29:36.634397,1779481776.634397,-367491,-152979,164364818,61667,25960,-34455,61,eaebfe00,0.0,0.0,0.0,0.0,0.0,0.0
2026-05-22 16:29:36.636397,1779481776.636397,-367491,-152979,164364818,61667,25960,-34455,61,eaebfe00,0.0,0.0,0.0,0.0,0.0,0.0
2026-05-22 16:29:36.637197,1779481776.637197,-326486,-132535,164399433,49663,2787,-23734,61,eaebfe00,0.0,0.0,0.0,0.0,0.0,0.0
2026-05-22 16:29:36.638097,1779481776.638097,-326486,-132535,164399433,49663,2787,-23734,61,eaebfe00,0.0,0.0,0.0,0.0,0.0,0.0
2026-05-22 16:29:36.638768,1779481776.638768,-325409,-94382,164434793,51420,-20449,-25647,61,eaebfe00,0.0,0.0,0.0,0.0,0.0,0.0
2026-05-22 16:29:36.639592,1779481776.639592,-325409,-94382,164434793,51420,-20449,-25647,61,eaebfe00,0.0,0.0,0.0,0.0,0.0,0.0
2026-05-22 16:29:36.640251,1779481776.640251,-288385,-107026,164467114,58083,-8565,-22258,61,eaecfe00,0.0,0.0,0.0,0.0,0.0,0.0
2026-05-22 16:29:36.641062,1779481776.641062,-288385,-107026,164467114,58083,-8565,-22258,61,eaecfe00,0.0,0.0,0.0,0.0,0.0,0.0
2026-05-22 16:29:36.641731,1779481776.641731,-277942,-110651,164483073,91208,12236,-41478,61,eaecfe00,0.0,0.0,0.0,0.0,0.0,0.0
2026-05-22 16:29:36.642541,1779481776.642541,-277942,-110651,164483073,91208,12236,-41478,61,eaecfe00,0.0,0.0,0.0,0.0,0.0,0.0
2026-05-22 16:29:36.643273,1779481776.643273,-281446,-124975,164436758,112600,35228,-41079,61,eaebfe00,0.0,0.0,0.0,0.0,0.0,0.0
2026-05-22 16:29:36.644127,1779481776.644127,-281446,-124975,164436758,112600,35228,-41079,61,eaebfe00,0.0,0.0,0.0,0.0,0.0,0.0
2026-05-22 16:29:36.644776,1779481776.644776,-316143,-158269,164414600,93959,52683,-37126,61,eaebfe00,0.0,0.0,0.0,0.0,0.0,0.0
2026-05-22 16:29:36.645574,1779481776.645574,-316143,-158269,164414600,93959,52683,-37126,61,eaebfe00,0.0,0.0,0.0,0.0,0.0,0.0
2026-05-22 16:29:36.646212,1779481776.646212,-326548,-165857,164380349,68922,36095,-27431,61,eaebfe00,0.0,0.0,0.0,0.0,0.0,0.0
2026-05-22 16:29:36.646982,1779481776.646982,-326548,-165857,164380349,68922,36095,-27431,61,eaebfe00,0.0,0.0,0.0,0.0,0.0,0.0
2026-05-22 16:29:36.647630,1779481776.647630,-354624,-149423,164390788,48212,35450,-34530,61,eaebfe00,0.0,0.0,0.0,0.0,0.0,0.0
2026-05-22 16:29:36.648424,1779481776.648424,-354624,-149423,164390788,48212,35450,-34530,61,eaebfe00,0.0,0.0,0.0,0.0,0.0,0.0
2026-05-22 16:29:36.649067,1779481776.649067,-342977,-127160,164375251,41334,44112,-34075,61,eaecfe00,0.0,0.0,0.0,0.0,0.0,0.0
2026-05-22 16:29:36.650022,1779481776.650022,-342977,-127160,164375251,41334,44112,-34075,61,eaecfe00,0.0,0.0,0.0,0.0,0.0,0.0
2026-05-22 16:29:36.650865,1779481776.650865,-298427,-132662,164366747,47309,38068,-38409,61,eaecfe00,0.0,0.0,0.0,0.0,0.0,0.0
2026-05-22 16:29:36.653755,1779481776.653755,-298427,-132662,164366747,47309,38068,-38409,61,eaecfe00,0.0,0.0,0.0,0.0,0.0,0.0
2026-05-22 16:29:36.654688,1779481776.654688,-262314,-141585,164406841,66162,22296,-46729,61,eaecfe00,0.0,0.0,0.0,0.0,0.0,0.0
2026-05-22 16:29:36.655828,1779481776.655828,-262314,-141585,164406841,66162,22296,-46729,61,eaecfe00,0.0,0.0,0.0,0.0,0.0,0.0
2026-05-22 16:29:36.656747,1779481776.656747,-198814,-146938,164406497,88213,18895,-51134,61,eaebfe00,0.0,0.0,0.0,0.0,0.0,0.0
2026-05-22 16:29:36.657961,1779481776.657961,-198814,-146938,164406497,88213,18895,-51134,61,eaebfe00,0.0,0.0,0.0,0.0,0.0,0.0
2026-05-22 16:29:36.658859,1779481776.658859,-192469,-112408,164417792,99949,13301,-29868,61,eaebfe00,0.0,0.0,0.0,0.0,0.0,0.0
2026-05-22 16:29:36.659817,1779481776.659817,-192469,-112408,164417792,99949,13301,-29868,61,eaebfe00,0.0,0.0,0.0,0.0,0.0,0.0
2026-05-22 16:29:36.660561,1779481776.660561,-188331,-90480,164383770,84218,31390,-11284,61,eaebfe00,0.0,0.0,0.0,0.0,0.0,0.0
2026-05-22 16:29:36.661379,1779481776.661379,-188331,-90480,164383770,84218,31390,-11284,61,eaebfe00,0.0,0.0,0.0,0.0,0.0,0.0
2026-05-22 16:29:36.662041,1779481776.662041,-277672,-79977,164403281,88133,42370,-32273,61,eaebfe00,0.0,0.0,0.0,0.0,0.0,0.0
2026-05-22 16:29:36.662948,1779481776.662948,-277672,-79977,164403281,88133,42370,-32273,61,eaebfe00,0.0,0.0,0.0,0.0,0.0,0.0
2026-05-22 16:29:36.663677,1779481776.663677,-321557,-93067,164409995,86869,64965,-38069,61,eaecfe00,0.0,0.0,0.0,0.0,0.0,0.0
2026-05-22 16:29:36.664537,1779481776.664537,-321557,-93067,164409995,86869,64965,-38069,61,eaecfe00,0.0,0.0,0.0,0.0,0.0,0.0
2026-05-22 16:29:36.665303,1779481776.665303,-328094,-111779,164394726,66649,76423,-40454,61,eaecfe00,0.0,0.0,0.0,0.0,0.0,0.0
2026-05-22 16:29:36.666293,1779481776.666293,-328094,-111779,164394726,66649,76423,-40454,61,eaecfe00,0.0,0.0,0.0,0.0,0.0,0.0
2026-05-22 16:29:36.667020,1779481776.667020,-323149,-116490,164394189,70809,58022,-30782,61,eaebfe00,0.0,0.0,0.0,0.0,0.0,0.0
2026-05-22 16:29:36.667918,1779481776.667918,-323149,-116490,164394189,70809,58022,-30782,61,eaebfe00,0.0,0.0,0.0,0.0,0.0,0.0
2026-05-22 16:29:36.668863,1779481776.668863,-361481,-117120,164370109,74183,12407,-21298,61,eaebfe00,0.0,0.0,0.0,0.0,0.0,0.0
2026-05-22 16:29:36.669995,1779481776.669995,-361481,-117120,164370109,74183,12407,-21298,61,eaebfe00,0.0,0.0,0.0,0.0,0.0,0.0
2026-05-22 16:29:36.671088,1779481776.671088,-391993,-142955,164423034,68948,21126,-20760,61,eaebfe00,0.0,0.0,0.0,0.0,0.0,0.0
2026-05-22 16:29:36.673856,1779481776.673856,-391993,-142955,164423034,68948,21126,-20760,61,eaebfe00,0.0,0.0,0.0,0.0,0.0,0.0
2026-05-22 16:29:36.675860,1779481776.675860,-391993,-142955,164423034,68948,21126,-20760,61,eaebfe00,0.0,0.0,0.0,0.0,0.0,0.0
2026-05-22 16:29:36.676546,1779481776.676546,-350312,-146203,164449595,65502,25753,-17169,61,eaecfe00,0.0,0.0,0.0,0.0,0.0,0.0
2026-05-22 16:29:36.677395,1779481776.677395,-289115,-188787,164465465,39660,41609,-16865,61,eaecfe00,0.0,0.0,0.0,0.0,0.0,0.0
2026-05-22 16:29:36.678283,1779481776.678283,-289115,-188787,164465465,39660,41609,-16865,61,eaecfe00,0.0,0.0,0.0,0.0,0.0,0.0
2026-05-22 16:29:36.679011,1779481776.679011,-286317,-153329,164447243,57884,38892,-27631,61,eaebfe00,0.0,0.0,0.0,0.0,0.0,0.0
2026-05-22 16:29:36.679955,1779481776.679955,-286317,-153329,164447243,57884,38892,-27631,61,eaebfe00,0.0,0.0,0.0,0.0,0.0,0.0
2026-05-22 16:29:36.680720,1779481776.680720,-303343,-103117,164396364,50193,31999,-26786,61,eaebfe00,0.0,0.0,0.0,0.0,0.0,0.0
2026-05-22 16:29:36.681619,1779481776.681619,-303343,-103117,164396364,50193,31999,-26786,61,eaebfe00,0.0,0.0,0.0,0.0,0.0,0.0
2026-05-22 16:29:36.682353,1779481776.682353,-305896,-57036,164424747,56917,31022,-26681,61,eaebfe00,0.0,0.0,0.0,0.0,0.0,0.0
2026-05-22 16:29:36.683304,1779481776.683304,-305896,-57036,164424747,56917,31022,-26681,61,eaebfe00,0.0,0.0,0.0,0.0,0.0,0.0
2026-05-22 16:29:36.683990,1779481776.683990,-277786,-65304,164383784,41842,16405,-40568,61,eaebfe00,0.0,0.0,0.0,0.0,0.0,0.0
2026-05-22 16:29:36.684933,1779481776.684933,-277786,-65304,164383784,41842,16405,-40568,61,eaebfe00,0.0,0.0,0.0,0.0,0.0,0.0
2026-05-22 16:29:36.685846,1779481776.685846,-305752,-54431,164415990,24427,26030,-68827,61,eaebfe00,0.0,0.0,0.0,0.0,0.0,0.0
2026-05-22 16:29:36.687007,1779481776.687007,-305752,-54431,164415990,24427,26030,-68827,61,eaebfe00,0.0,0.0,0.0,0.0,0.0,0.0
2026-05-22 16:29:36.687999,1779481776.687999,-303926,-117487,164375063,5745,40757,-74644,61,eaebfe00,0.0,0.0,0.0,0.0,0.0,0.0
2026-05-22 16:29:36.689131,1779481776.689131,-303926,-117487,164375063,5745,40757,-74644,61,eaebfe00,0.0,0.0,0.0,0.0,0.0,0.0
2026-05-22 16:29:36.690054,1779481776.690054,-343251,-144949,164394491,6086,61825,-78147,61,eaebfe00,0.0,0.0,0.0,0.0,0.0,0.0
2026-05-22 16:29:36.691123,1779481776.691123,-343251,-144949,164394491,6086,61825,-78147,61,eaebfe00,0.0,0.0,0.0,0.0,0.0,0.0
2026-05-22 16:29:36.691950,1779481776.691950,-333093,-185073,164363827,32456,32001,-52033,61,eaebfe00,0.0,0.0,0.0,0.0,0.0,0.0
2026-05-22 16:29:36.693729,1779481776.693729,-333093,-185073,164363827,32456,32001,-52033,61,eaebfe00,0.0,0.0,0.0,0.0,0.0,0.0
2026-05-22 16:29:36.694318,1779481776.694318,-317061,-151152,164388086,59689,22193,-39033,61,eaebfe00,0.0,0.0,0.0,0.0,0.0,0.0
2026-05-22 16:29:36.695019,1779481776.695019,-317061,-151152,164388086,59689,22193,-39033,61,eaebfe00,0.0,0.0,0.0,0.0,0.0,0.0
2026-05-22 16:29:36.695615,1779481776.695615,-333688,-136946,164386196,50922,11086,-48002,61,eaebfe00,0.0,0.0,0.0,0.0,0.0,0.0
2026-05-22 16:29:36.696397,1779481776.696397,-333688,-136946,164386196,50922,11086,-48002,61,eaebfe00,0.0,0.0,0.0,0.0,0.0,0.0
2026-05-22 16:29:36.696950,1779481776.696950,-309326,-142437,164409086,53456,40315,-53843,61,eaebfe00,0.0,0.0,0.0,0.0,0.0,0.0
2026-05-22 16:29:36.697683,1779481776.697683,-309326,-142437,164409086,53456,40315,-53843,61,eaebfe00,0.0,0.0,0.0,0.0,0.0,0.0
2026-05-22 16:29:36.698569,1779481776.698569,-309326,-142437,164409086,53456,40315,-53843,61,eaebfe00,0.0,0.0,0.0,0.0,0.0,0.0
2026-05-22 16:29:36.698944,1779481776.698944,-302665,-149830,164425307,35767,68667,-68903,61,eaebfe00,0.0,0.0,0.0,0.0,0.0,0.0
2026-05-22 16:29:36.699534,1779481776.699534,-286236,-133867,164414739,46048,79890,-38759,61,eaebfe00,0.0,0.0,0.0,0.0,0.0,0.0
2026-05-22 16:29:36.700244,1779481776.700244,-286236,-133867,164414739,46048,79890,-38759,61,eaebfe00,0.0,0.0,0.0,0.0,0.0,0.0
2026-05-22 16:29:36.700838,1779481776.700838,-297416,-155231,164395733,46522,54690,-46827,61,eaebfe00,0.0,0.0,0.0,0.0,0.0,0.0
2026-05-22 16:29:36.701680,1779481776.701680,-297416,-155231,164395733,46522,54690,-46827,61,eaebfe00,0.0,0.0,0.0,0.0,0.0,0.0
2026-05-22 16:29:36.702378,1779481776.702378,-342507,-149584,164368697,49486,42674,-34367,61,eaebfe00,0.0,0.0,0.0,0.0,0.0,0.0
2026-05-22 16:29:36.703221,1779481776.703221,-342507,-149584,164368697,49486,42674,-34367,61,eaebfe00,0.0,0.0,0.0,0.0,0.0,0.0
2026-05-22 16:29:36.703829,1779481776.703829,-342093,-184148,164347855,58880,29864,-49521,61,eaebfe00,0.0,0.0,0.0,0.0,0.0,0.0
2026-05-22 16:29:36.704658,1779481776.704658,-342093,-184148,164347855,58880,29864,-49521,61,eaebfe00,0.0,0.0,0.0,0.0,0.0,0.0
2026-05-22 16:29:36.705380,1779481776.705380,-338575,-187318,164377117,61819,38921,-62435,61,eaebfe00,0.0,0.0,0.0,0.0,0.0,0.0
2026-05-22 16:29:36.706188,1779481776.706188,-338575,-187318,164377117,61819,38921,-62435,61,eaebfe00,0.0,0.0,0.0,0.0,0.0,0.0
2026-05-22 16:29:36.706801,1779481776.706801,-297498,-209022,164422166,87444,48560,-64885,61,eaebfe00,0.0,0.0,0.0,0.0,0.0,0.0
2026-05-22 16:29:36.708347,1779481776.708347,-297498,-209022,164422166,87444,48560,-64885,61,eaebfe00,0.0,0.0,0.0,0.0,0.0,0.0
2026-05-22 16:29:36.710010,1779481776.710010,-281613,-212598,164429834,89907,48437,-49157,61,eaebfe00,0.0,0.0,0.0,0.0,0.0,0.0
2026-05-22 16:29:36.710731,1779481776.710731,-281613,-212598,164429834,89907,48437,-49157,61,eaebfe00,0.0,0.0,0.0,0.0,0.0,0.0
2026-05-22 16:29:36.720421,1779481776.720421,-292636,-201232,164434668,94652,61300,-27658,61,eaebfe00,0.0,0.0,0.0,0.0,0.0,0.0
2026-05-22 16:29:36.721429,1779481776.721429,-292636,-201232,164434668,94652,61300,-27658,61,eaebfe00,0.0,0.0,0.0,0.0,0.0,0.0
2026-05-22 16:29:36.730171,1779481776.730171,-328353,-187369,164405596,78396,63656,-32257,61,eaebfe00,0.0,0.0,0.0,0.0,0.0,0.0
2026-05-22 16:29:36.730951,1779481776.730951,-328353,-187369,164405596,78396,63656,-32257,61,eaebfe00,0.0,0.0,0.0,0.0,0.0,0.0
2026-05-22 16:29:36.740617,1779481776.740617,-326151,-158057,164405390,66860,60636,-37983,61,eaebfe00,0.0,0.0,0.0,0.0,0.0,0.0
2026-05-22 16:29:36.742548,1779481776.742548,-326151,-158057,164405390,66860,60636,-37983,61,eaebfe00,0.0,0.0,0.0,0.0,0.0,0.0
2026-05-22 16:29:36.750218,1779481776.750218,-322082,-155861,164403120,60137,43917,-38305,61,eaebfe00,0.0,0.0,0.0,0.0,0.0,0.0
2026-05-22 16:29:36.751104,1779481776.751104,-322082,-155861,164403120,60137,43917,-38305,61,eaebfe00,0.0,0.0,0.0,0.0,0.0,0.0
2026-05-22 16:29:36.760426,1779481776.760426,-298505,-146033,164404768,51736,21239,-33267,61,eaebfe00,0.0,0.0,0.0,0.0,0.0,0.0
2026-05-22 16:29:36.761275,1779481776.761275,-298505,-146033,164404768,51736,21239,-33267,61,eaebfe00,0.0,0.0,0.0,0.0,0.0,0.0
2026-05-22 16:29:36.770215,1779481776.770215,-309932,-148177,164399317,57533,39513,-28638,61,eaebfe00,0.0,0.0,0.0,0.0,0.0,0.0
2026-05-22 16:29:36.771052,1779481776.771052,-309932,-148177,164399317,57533,39513,-28638,61,eaebfe00,0.0,0.0,0.0,0.0,0.0,0.0
2026-05-22 16:29:36.780076,1779481776.780076,-339921,-179337,164392658,52358,57651,-32465,61,eaebfe00,0.0,0.0,0.0,0.0,0.0,0.0
2026-05-22 16:29:36.780785,1779481776.780785,-339921,-179337,164392658,52358,57651,-32465,61,eaebfe00,0.0,0.0,0.0,0.0,0.0,0.0
2026-05-22 16:29:36.790068,1779481776.790068,-350673,-201680,164423960,50578,76305,-50645,61,eaebfe00,0.0,0.0,0.0,0.0,0.0,0.0
2026-05-22 16:29:36.790848,1779481776.790848,-350673,-201680,164423960,50578,76305,-50645,61,eaebfe00,0.0,0.0,0.0,0.0,0.0,0.0
2026-05-22 16:29:36.800993,1779481776.800993,-370053,-178209,164410089,57775,70203,-50545,61,eaebfe00,0.0,0.0,0.0,0.0,0.0,0.0
2026-05-22 16:29:36.803022,1779481776.803022,-370053,-178209,164410089,57775,70203,-50545,61,eaebfe00,0.0,0.0,0.0,0.0,0.0,0.0
2026-05-22 16:29:36.810574,1779481776.810574,-356659,-159453,164457863,44317,54602,-40583,61,eaebfe00,0.0,0.0,0.0,0.0,0.0,0.0
2026-05-22 16:29:36.812574,1779481776.812574,-356659,-159453,164457863,44317,54602,-40583,61,eaebfe00,0.0,0.0,0.0,0.0,0.0,0.0
2026-05-22 16:29:36.820166,1779481776.820166,-339731,-100718,164419086,36291,62414,-37589,61,eaebfe00,0.0,0.0,0.0,0.0,0.0,0.0
2026-05-22 16:29:36.821082,1779481776.821082,-339731,-100718,164419086,36291,62414,-37589,61,eaebfe00,0.0,0.0,0.0,0.0,0.0,0.0
2026-05-22 16:29:36.830149,1779481776.830149,-355795,-97532,164393646,40122,28487,-29693,61,eaebfe00,0.0,0.0,0.0,0.0,0.0,0.0
2026-05-22 16:29:36.831539,1779481776.831539,-355795,-97532,164393646,40122,28487,-29693,61,eaebfe00,0.0,0.0,0.0,0.0,0.0,0.0
2026-05-22 16:29:36.840427,1779481776.840427,-329170,-82752,164377012,53083,36217,-15746,61,eaebfe00,0.0,0.0,0.0,0.0,0.0,0.0
2026-05-22 16:29:36.841597,1779481776.841597,-329170,-82752,164377012,53083,36217,-15746,61,eaebfe00,0.0,0.0,0.0,0.0,0.0,0.0
2026-05-22 16:29:36.849981,1779481776.849981,-357196,-172342,164379744,46666,-1338,-18413,61,eaebfe00,0.0,0.0,0.0,0.0,0.0,0.0
2026-05-22 16:29:36.850679,1779481776.850679,-357196,-172342,164379744,46666,-1338,-18413,61,eaebfe00,0.0,0.0,0.0,0.0,0.0,0.0
2026-05-22 16:29:36.860085,1779481776.860085,-336719,-241276,164403538,41582,17183,-12885,61,eaebfe00,0.0,0.0,0.0,0.0,0.0,0.0
2026-05-22 16:29:36.861025,1779481776.861025,-336719,-241276,164403538,41582,17183,-12885,61,eaebfe00,0.0,0.0,0.0,0.0,0.0,0.0
2026-05-22 16:29:36.870394,1779481776.870394,-327694,-211791,164399292,60688,32589,-42734,61,eaebfe00,0.0,0.0,0.0,0.0,0.0,0.0
2026-05-22 16:29:36.871524,1779481776.871524,-327694,-211791,164399292,60688,32589,-42734,61,eaebfe00,0.0,0.0,0.0,0.0,0.0,0.0
2026-05-22 16:29:36.880197,1779481776.880197,-346767,-169866,164408732,83482,56216,-38217,61,eaebfe00,0.0,0.0,0.0,0.0,0.0,0.0
2026-05-22 16:29:36.881183,1779481776.881183,-346767,-169866,164408732,83482,56216,-38217,61,eaebfe00,0.0,0.0,0.0,0.0,0.0,0.0
2026-05-22 16:29:36.890297,1779481776.890297,-318494,-132938,164417413,73714,57547,-44130,61,eaebfe00,0.0,0.0,0.0,0.0,0.0,0.0
2026-05-22 16:29:36.891977,1779481776.891977,-318494,-132938,164417413,73714,57547,-44130,61,eaebfe00,0.0,0.0,0.0,0.0,0.0,0.0
2026-05-22 16:29:36.900980,1779481776.900980,-339220,-159814,164403704,44308,57637,-39088,61,eaebfe00,0.0,0.0,0.0,0.0,0.0,0.0
2026-05-22 16:29:36.903364,1779481776.903364,-339220,-159814,164403704,44308,57637,-39088,61,eaebfe00,0.0,0.0,0.0,0.0,0.0,0.0
2026-05-22 16:29:36.910370,1779481776.910370,-300673,-168980,164369194,19773,50735,-41442,61,eaebfe00,0.0,0.0,0.0,0.0,0.0,0.0
2026-05-22 16:29:36.911518,1779481776.911518,-300673,-168980,164369194,19773,50735,-41442,61,eaebfe00,0.0,0.0,0.0,0.0,0.0,0.0
2026-05-22 16:29:36.920627,1779481776.920627,-320195,-192180,164377762,15832,52671,-59466,61,eaebfe00,0.0,0.0,0.0,0.0,0.0,0.0
2026-05-22 16:29:36.921907,1779481776.921907,-320195,-192180,164377762,15832,52671,-59466,61,eaebfe00,0.0,0.0,0.0,0.0,0.0,0.0
2026-05-22 16:29:36.930470,1779481776.930470,-291333,-168381,164404689,27265,50339,-55679,61,eaebfe00,0.0,0.0,0.0,0.0,0.0,0.0
2026-05-22 16:29:36.931706,1779481776.931706,-291333,-168381,164404689,27265,50339,-55679,61,eaebfe00,0.0,0.0,0.0,0.0,0.0,0.0
2026-05-22 16:29:36.940224,1779481776.940224,-324111,-169026,164444906,20633,32584,-51489,61,eaebfe00,0.0,0.0,0.0,0.0,0.0,0.0
2026-05-22 16:29:36.941216,1779481776.941216,-324111,-169026,164444906,20633,32584,-51489,61,eaebfe00,0.0,0.0,0.0,0.0,0.0,0.0
2026-05-22 16:29:36.950217,1779481776.950217,-320648,-153079,164449675,17888,37891,-22032,61,eaebfe00,0.0,0.0,0.0,0.0,0.0,0.0
2026-05-22 16:29:36.951006,1779481776.951006,-320648,-153079,164449675,17888,37891,-22032,61,eaebfe00,0.0,0.0,0.0,0.0,0.0,0.0
2026-05-22 16:29:36.960662,1779481776.960662,-320648,-153079,164449675,17888,37891,-22032,61,eaebfe00,0.0,0.0,0.0,0.0,0.0,0.0
2026-05-22 16:29:36.961164,1779481776.961164,-348556,-138384,164447847,40783,34911,-40803,61,eaebfe00,0.0,0.0,0.0,0.0,0.0,0.0
2026-05-22 16:29:36.970108,1779481776.970108,-373873,-179175,164406352,37910,53946,-45311,61,eaebfe00,0.0,0.0,0.0,0.0,0.0,0.0
2026-05-22 16:29:36.971200,1779481776.971200,-373873,-179175,164406352,37910,53946,-45311,61,eaebfe00,0.0,0.0,0.0,0.0,0.0,0.0
2026-05-22 16:29:36.980564,1779481776.980564,-373873,-179175,164406352,37910,53946,-45311,61,eaebfe00,0.0,0.0,0.0,0.0,0.0,0.0
2026-05-22 16:29:36.981104,1779481776.981104,-356443,-165456,164400279,75540,71090,-55938,61,eaebfe00,0.0,0.0,0.0,0.0,0.0,0.0
2026-05-22 16:29:36.991231,1779481776.991231,-338082,-160243,164392432,83880,71999,-24131,61,eaebfe00,0.0,0.0,0.0,0.0,0.0,0.0
2026-05-22 16:29:36.994495,1779481776.994495,-338082,-160243,164392432,83880,71999,-24131,61,eaebfe00,0.0,0.0,0.0,0.0,0.0,0.0
2026-05-22 16:29:37.003473,1779481777.003473,-292913,-153122,164416239,96138,64477,-26970,61,eaebfe00,0.0,0.0,0.0,0.0,0.0,0.0
2026-05-22 16:29:37.009311,1779481777.009311,-292913,-153122,164416239,96138,64477,-26970,61,eaebfe00,0.0,0.0,0.0,0.0,0.0,0.0
2026-05-22 16:29:37.011253,1779481777.011253,-301372,-159910,164437046,78812,58027,-56118,61,eaebfe00,0.0,0.0,0.0,0.0,0.0,0.0
2026-05-22 16:29:37.012045,1779481777.012045,-301372,-159910,164437046,78812,58027,-56118,61,eaebfe00,0.0,0.0,0.0,0.0,0.0,0.0
2026-05-22 16:29:37.021333,1779481777.021333,-296056,-178084,164447998,71906,60037,-68523,61,eaebfe00,0.0,0.0,0.0,0.0,0.0,0.0
2026-05-22 16:29:37.023703,1779481777.023703,-296056,-178084,164447998,71906,60037,-68523,61,eaebfe00,0.0,0.0,0.0,0.0,0.0,0.0
2026-05-22 16:29:37.031079,1779481777.031079,-316530,-223366,164440012,59486,75969,-52867,61,eaecfe00,0.0,0.0,0.0,0.0,0.0,0.0
2026-05-22 16:29:37.033032,1779481777.033032,-316530,-223366,164440012,59486,75969,-52867,61,eaecfe00,0.0,0.0,0.0,0.0,0.0,0.0
2026-05-22 16:29:37.041800,1779481777.041800,-265342,-212577,164433505,61703,52421,-30332,61,eaecfe00,0.0,0.0,0.0,0.0,0.0,0.0
2026-05-22 16:29:37.044445,1779481777.044445,-265342,-212577,164433505,61703,52421,-30332,61,eaecfe00,0.0,0.0,0.0,0.0,0.0,0.0
2026-05-22 16:29:37.051437,1779481777.051437,-267385,-182849,164413546,51841,37809,-33477,61,eaebfe00,0.0,0.0,0.0,0.0,0.0,0.0
2026-05-22 16:29:37.054163,1779481777.054163,-267385,-182849,164413546,51841,37809,-33477,61,eaebfe00,0.0,0.0,0.0,0.0,0.0,0.0
2026-05-22 16:29:37.061567,1779481777.061567,-298476,-153334,164414766,42478,23356,-33465,61,eaebfe00,0.0,0.0,0.0,0.0,0.0,0.0
2026-05-22 16:29:37.063879,1779481777.063879,-298476,-153334,164414766,42478,23356,-33465,61,eaebfe00,0.0,0.0,0.0,0.0,0.0,0.0
2026-05-22 16:29:37.071418,1779481777.071418,-304862,-123091,164380815,43739,39145,-31654,61,eaebfe00,0.0,0.0,0.0,0.0,0.0,0.0
2026-05-22 16:29:37.074177,1779481777.074177,-304862,-123091,164380815,43739,39145,-31654,61,eaebfe00,0.0,0.0,0.0,0.0,0.0,0.0
2026-05-22 16:29:37.081487,1779481777.081487,-309829,-117836,164383604,37037,49251,-37132,61,eaebfe00,0.0,0.0,0.0,0.0,0.0,0.0
2026-05-22 16:29:37.083052,1779481777.083052,-309829,-117836,164383604,37037,49251,-37132,61,eaebfe00,0.0,0.0,0.0,0.0,0.0,0.0
2026-05-22 16:29:37.091021,1779481777.091021,-308083,-116055,164383599,28776,29234,-50393,61,eaebfe00,0.0,0.0,0.0,0.0,0.0,0.0
2026-05-22 16:29:37.092817,1779481777.092817,-308083,-116055,164383599,28776,29234,-50393,61,eaebfe00,0.0,0.0,0.0,0.0,0.0,0.0
2026-05-22 16:29:37.100704,1779481777.100704,-332928,-151922,164426464,30007,30655,-52799,61,eaebfe00,0.0,0.0,0.0,0.0,0.0,0.0
2026-05-22 16:29:37.102805,1779481777.102805,-332928,-151922,164426464,30007,30655,-52799,61,eaebfe00,0.0,0.0,0.0,0.0,0.0,0.0
2026-05-22 16:29:37.110342,1779481777.110342,-381396,-196356,164458172,38729,18079,-44695,61,eaebfe00,0.0,0.0,0.0,0.0,0.0,0.0
2026-05-22 16:29:37.111541,1779481777.111541,-381396,-196356,164458172,38729,18079,-44695,61,eaebfe00,0.0,0.0,0.0,0.0,0.0,0.0
2026-05-22 16:29:37.120715,1779481777.120715,-343001,-133748,164478614,67411,51301,-48436,61,eaebfe00,0.0,0.0,0.0,0.0,0.0,0.0
2026-05-22 16:29:37.121877,1779481777.121877,-343001,-133748,164478614,67411,51301,-48436,61,eaebfe00,0.0,0.0,0.0,0.0,0.0,0.0
2026-05-22 16:29:37.130239,1779481777.130239,-326587,-152885,164456967,103048,44475,-48960,61,eaecfe00,0.0,0.0,0.0,0.0,0.0,0.0
2026-05-22 16:29:37.131495,1779481777.131495,-326587,-152885,164456967,103048,44475,-48960,61,eaecfe00,0.0,0.0,0.0,0.0,0.0,0.0
2026-05-22 16:29:37.140110,1779481777.140110,-306358,-129791,164412099,106586,56864,-38647,61,eaecfe00,0.0,0.0,0.0,0.0,0.0,0.0
2026-05-22 16:29:37.140978,1779481777.140978,-306358,-129791,164412099,106586,56864,-38647,61,eaecfe00,0.0,0.0,0.0,0.0,0.0,0.0
2026-05-22 16:29:37.150811,1779481777.150811,-306991,-172839,164400007,84939,40557,-35945,61,eaecfe00,0.0,0.0,0.0,0.0,0.0,0.0
2026-05-22 16:29:37.152596,1779481777.152596,-306991,-172839,164400007,84939,40557,-35945,61,eaecfe00,0.0,0.0,0.0,0.0,0.0,0.0
2026-05-22 16:29:37.160865,1779481777.160865,-308206,-185535,164387724,68776,42953,-12869,61,eaebfe00,0.0,0.0,0.0,0.0,0.0,0.0
2026-05-22 16:29:37.162987,1779481777.162987,-308206,-185535,164387724,68776,42953,-12869,61,eaebfe00,0.0,0.0,0.0,0.0,0.0,0.0
2026-05-22 16:29:37.170057,1779481777.170057,-275336,-143636,164398644,65474,26562,-13286,61,eaebfe00,0.0,0.0,0.0,0.0,0.0,0.0
2026-05-22 16:29:37.170871,1779481777.170871,-275336,-143636,164398644,65474,26562,-13286,61,eaebfe00,0.0,0.0,0.0,0.0,0.0,0.0
2026-05-22 16:29:37.180058,1779481777.180058,-286233,-138630,164360914,49462,43096,-13102,61,eaebfe00,0.0,0.0,0.0,0.0,0.0,0.0
2026-05-22 16:29:37.180890,1779481777.180890,-286233,-138630,164360914,49462,43096,-13102,61,eaebfe00,0.0,0.0,0.0,0.0,0.0,0.0
2026-05-22 16:29:37.190112,1779481777.190112,-261351,-105077,164379119,49575,60856,-20664,61,eaebfe00,0.0,0.0,0.0,0.0,0.0,0.0
2026-05-22 16:29:37.190855,1779481777.190855,-261351,-105077,164379119,49575,60856,-20664,61,eaebfe00,0.0,0.0,0.0,0.0,0.0,0.0
2026-05-22 16:29:37.200976,1779481777.200976,-263212,-162743,164377769,24996,70877,-37865,61,eaecfe00,0.0,0.0,0.0,0.0,0.0,0.0
2026-05-22 16:29:37.202696,1779481777.202696,-263212,-162743,164377769,24996,70877,-37865,61,eaecfe00,0.0,0.0,0.0,0.0,0.0,0.0
2026-05-22 16:29:37.210129,1779481777.210129,-258163,-172483,164411016,40381,49972,-41050,61,eaecfe00,0.0,0.0,0.0,0.0,0.0,0.0
2026-05-22 16:29:37.210953,1779481777.210953,-258163,-172483,164411016,40381,49972,-41050,61,eaecfe00,0.0,0.0,0.0,0.0,0.0,0.0
2026-05-22 16:29:37.220217,1779481777.220217,-308090,-165895,164410289,35405,43634,-37353,61,eaecfe00,0.0,0.0,0.0,0.0,0.0,0.0
2026-05-22 16:29:37.221267,1779481777.221267,-308090,-165895,164410289,35405,43634,-37353,61,eaecfe00,0.0,0.0,0.0,0.0,0.0,0.0
2026-05-22 16:29:37.230239,1779481777.230239,-345098,-157648,164415755,21017,41412,-44479,61,eaecfe00,0.0,0.0,0.0,0.0,0.0,0.0
2026-05-22 16:29:37.231455,1779481777.231455,-345098,-157648,164415755,21017,41412,-44479,61,eaecfe00,0.0,0.0,0.0,0.0,0.0,0.0
2026-05-22 16:29:37.240637,1779481777.240637,-394569,-149994,164415026,37257,49146,-60366,61,eaebfe00,0.0,0.0,0.0,0.0,0.0,0.0
2026-05-22 16:29:37.241793,1779481777.241793,-394569,-149994,164415026,37257,49146,-60366,61,eaebfe00,0.0,0.0,0.0,0.0,0.0,0.0
2026-05-22 16:29:37.250236,1779481777.250236,-395667,-137837,164401287,54967,20462,-64226,61,eaebfe00,0.0,0.0,0.0,0.0,0.0,0.0
2026-05-22 16:29:37.251400,1779481777.251400,-395667,-137837,164401287,54967,20462,-64226,61,eaebfe00,0.0,0.0,0.0,0.0,0.0,0.0
2026-05-22 16:29:37.260301,1779481777.260301,-346494,-104921,164376561,52640,15703,-73693,61,eaebfe00,0.0,0.0,0.0,0.0,0.0,0.0
2026-05-22 16:29:37.261277,1779481777.261277,-346494,-104921,164376561,52640,15703,-73693,61,eaebfe00,0.0,0.0,0.0,0.0,0.0,0.0
2026-05-22 16:29:37.270110,1779481777.270110,-306666,-122264,164383078,52887,23369,-56841,61,eaebfe00,0.0,0.0,0.0,0.0,0.0,0.0
2026-05-22 16:29:37.270835,1779481777.270835,-306666,-122264,164383078,52887,23369,-56841,61,eaebfe00,0.0,0.0,0.0,0.0,0.0,0.0
2026-05-22 16:29:37.280156,1779481777.280156,-263197,-171629,164363985,36928,36328,-78278,61,eaebfe00,0.0,0.0,0.0,0.0,0.0,0.0
2026-05-22 16:29:37.280861,1779481777.280861,-263197,-171629,164363985,36928,36328,-78278,61,eaebfe00,0.0,0.0,0.0,0.0,0.0,0.0
2026-05-22 16:29:37.290056,1779481777.290056,-263927,-203466,164417996,30115,26292,-60664,61,eaebfe00,0.0,0.0,0.0,0.0,0.0,0.0
2026-05-22 16:29:37.290852,1779481777.290852,-263927,-203466,164417996,30115,26292,-60664,61,eaebfe00,0.0,0.0,0.0,0.0,0.0,0.0
2026-05-22 16:29:37.300581,1779481777.300581,-271706,-191003,164442089,28080,11910,-45434,61,eaebfe00,0.0,0.0,0.0,0.0,0.0,0.0
2026-05-22 16:29:37.302216,1779481777.302216,-271706,-191003,164442089,28080,11910,-45434,61,eaebfe00,0.0,0.0,0.0,0.0,0.0,0.0
2026-05-22 16:29:37.310151,1779481777.310151,-257134,-218817,164430446,33283,19892,-16180,61,eaebfe00,0.0,0.0,0.0,0.0,0.0,0.0
2026-05-22 16:29:37.311097,1779481777.311097,-257134,-218817,164430446,33283,19892,-16180,61,eaebfe00,0.0,0.0,0.0,0.0,0.0,0.0
2026-05-22 16:29:37.320525,1779481777.320525,-291752,-203089,164385852,47829,37173,-17535,61,eaebfe00,0.0,0.0,0.0,0.0,0.0,0.0
2026-05-22 16:29:37.322005,1779481777.322005,-291752,-203089,164385852,47829,37173,-17535,61,eaebfe00,0.0,0.0,0.0,0.0,0.0,0.0
2026-05-22 16:29:37.330288,1779481777.330288,-310225,-248348,164380357,51661,47902,-36214,61,eaebfe00,0.0,0.0,0.0,0.0,0.0,0.0
2026-05-22 16:29:37.331266,1779481777.331266,-310225,-248348,164380357,51661,47902,-36214,61,eaebfe00,0.0,0.0,0.0,0.0,0.0,0.0
2026-05-22 16:29:37.340337,1779481777.340337,-332346,-192055,164377825,84197,61810,-45219,61,eaebfe00,0.0,0.0,0.0,0.0,0.0,0.0
2026-05-22 16:29:37.341590,1779481777.341590,-332346,-192055,164377825,84197,61810,-45219,61,eaebfe00,0.0,0.0,0.0,0.0,0.0,0.0
2026-05-22 16:29:37.350206,1779481777.350206,-311358,-195858,164416256,102633,60309,-50599,61,eaebfe00,0.0,0.0,0.0,0.0,0.0,0.0
2026-05-22 16:29:37.351069,1779481777.351069,-311358,-195858,164416256,102633,60309,-50599,61,eaebfe00,0.0,0.0,0.0,0.0,0.0,0.0
2026-05-22 16:29:37.360443,1779481777.360443,-300220,-127057,164428091,96203,63904,-46606,61,eaebfe00,0.0,0.0,0.0,0.0,0.0,0.0
2026-05-22 16:29:37.361339,1779481777.361339,-300220,-127057,164428091,96203,63904,-46606,61,eaebfe00,0.0,0.0,0.0,0.0,0.0,0.0
2026-05-22 16:29:37.370462,1779481777.370462,-302254,-103247,164443164,63496,55042,-33059,61,eaebfe00,0.0,0.0,0.0,0.0,0.0,0.0
2026-05-22 16:29:37.371777,1779481777.371777,-302254,-103247,164443164,63496,55042,-33059,61,eaebfe00,0.0,0.0,0.0,0.0,0.0,0.0
2026-05-22 16:29:37.380141,1779481777.380141,-332693,-63519,164451157,42707,38046,-45386,61,eaebfe00,0.0,0.0,0.0,0.0,0.0,0.0
2026-05-22 16:29:37.380913,1779481777.380913,-332693,-63519,164451157,42707,38046,-45386,61,eaebfe00,0.0,0.0,0.0,0.0,0.0,0.0
2026-05-22 16:29:37.390424,1779481777.390424,-341238,-78560,164407371,31679,27572,-44613,61,eaebfe00,0.0,0.0,0.0,0.0,0.0,0.0
2026-05-22 16:29:37.391898,1779481777.391898,-341238,-78560,164407371,31679,27572,-44613,61,eaebfe00,0.0,0.0,0.0,0.0,0.0,0.0
2026-05-22 16:29:37.400581,1779481777.400581,-317487,-79997,164410248,68109,17116,-47622,61,eaebfe00,0.0,0.0,0.0,0.0,0.0,0.0
2026-05-22 16:29:37.402809,1779481777.402809,-317487,-79997,164410248,68109,17116,-47622,61,eaebfe00,0.0,0.0,0.0,0.0,0.0,0.0
2026-05-22 16:29:37.410319,1779481777.410319,-291915,-129877,164425539,53354,26358,-53057,61,eaebfe00,0.0,0.0,0.0,0.0,0.0,0.0
2026-05-22 16:29:37.411210,1779481777.411210,-291915,-129877,164425539,53354,26358,-53057,61,eaebfe00,0.0,0.0,0.0,0.0,0.0,0.0
2026-05-22 16:29:37.420125,1779481777.420125,-297861,-162727,164429765,61469,62056,-58413,61,eaecfe00,0.0,0.0,0.0,0.0,0.0,0.0
2026-05-22 16:29:37.420925,1779481777.420925,-297861,-162727,164429765,61469,62056,-58413,61,eaecfe00,0.0,0.0,0.0,0.0,0.0,0.0
2026-05-22 16:29:37.430171,1779481777.430171,-351189,-175161,164430020,48677,86812,-74107,61,eaebfe00,0.0,0.0,0.0,0.0,0.0,0.0
2026-05-22 16:29:37.430972,1779481777.430972,-351189,-175161,164430020,48677,86812,-74107,61,eaebfe00,0.0,0.0,0.0,0.0,0.0,0.0
2026-05-22 16:29:37.440278,1779481777.440278,-350548,-178380,164417996,53485,96209,-53058,61,eaebfe00,0.0,0.0,0.0,0.0,0.0,0.0
2026-05-22 16:29:37.441610,1779481777.441610,-350548,-178380,164417996,53485,96209,-53058,61,eaebfe00,0.0,0.0,0.0,0.0,0.0,0.0
2026-05-22 16:29:37.450592,1779481777.450592,-349348,-124394,164404824,60134,71200,-52596,61,eaebfe00,0.0,0.0,0.0,0.0,0.0,0.0
