sys_datetime,unix_timestamp,raw_accel_x_lsb,raw_accel_y_lsb,raw_accel_z_lsb,raw_gyro_x_lsb,raw_gyro_y_lsb,raw_gyro_z_lsb,raw_accel_x_ms2,raw_accel_y_ms2,raw_accel_z_ms2,raw_gyro_x_degs,raw_gyro_y_degs,raw_gyro_z_degs,imu_type,imu_status_hex,veh_lat_acc_ms2,veh_long_acc_ms2,veh_vert_acc_ms2,veh_pitch_rate_degs,veh_roll_rate_degs,veh_yaw_rate_degs
2026-05-26 15:27:07.498977,1779823627.498977,,,,,,,,,,,,,,,0.0,0.0,0.0,0.0,0.0,0.0
2026-05-26 15:27:07.500692,1779823627.500692,-2496677,-3559751,164436638,26794,8574,-42337,-0.14943870545684818,-0.2130690438485718,9.84236179225281,0.00619459977722168,0.001982253433227539,-0.009788041007995605,61,fe5ffe00,0.0,0.0,0.0,0.0,0.0,0.0
2026-05-26 15:27:07.503312,1779823627.503312,-2496677,-3559751,164436638,26794,8574,-42337,-0.14943870545684818,-0.2130690438485718,9.84236179225281,0.00619459977722168,0.001982253433227539,-0.009788041007995605,61,fe5ffe00,0.0,0.0,0.0,0.0,0.0,0.0
2026-05-26 15:27:07.504512,1779823627.504512,-2385438,-3691635,164252408,85969,103970,-17105,-0.14278049049499514,-0.22096296614227298,9.831334697956544,0.019875477653503417,0.024037192611694336,-0.003954565544128418,61,fe60fe00,0.0,0.0,0.0,0.0,0.0,0.0
2026-05-26 15:27:07.506193,1779823627.506193,-2385438,-3691635,164252408,85969,103970,-17105,-0.14278049049499514,-0.22096296614227298,9.831334697956544,0.019875477653503417,0.024037192611694336,-0.003954565544128418,61,fe60fe00,0.0,0.0,0.0,0.0,0.0,0.0
2026-05-26 15:27:07.506968,1779823627.506968,-2687181,-3915705,164292175,99207,125387,-10459,-0.16084133028350833,-0.23437468529205327,9.83371495339203,0.022936017768859864,0.028988664710998535,-0.0024180532608032226,61,fe60fe00,0.0,0.0,0.0,0.0,0.0,0.0
2026-05-26 15:27:07.508254,1779823627.508254,-2687181,-3915705,164292175,99207,125387,-10459,-0.16084133028350833,-0.23437468529205327,9.83371495339203,0.022936017768859864,0.028988664710998535,-0.0024180532608032226,61,fe60fe00,0.0,0.0,0.0,0.0,0.0,0.0
2026-05-26 15:27:07.508950,1779823627.508950,-2693941,-3954246,164584847,68003,86413,-20841,-0.16124595036407474,-0.2366815584466553,9.85123284809906,0.015721854469299315,0.019978127586364747,-0.004818304618835449,61,fe60fe00,0.0,0.0,0.0,0.0,0.0,0.0
2026-05-26 15:27:07.510062,1779823627.510062,-2693941,-3954246,164584847,68003,86413,-20841,-0.16124595036407474,-0.2366815584466553,9.85123284809906,0.015721854469299315,0.019978127586364747,-0.004818304618835449,61,fe60fe00,0.0,0.0,0.0,0.0,0.0,0.0
2026-05-26 15:27:07.510774,1779823627.510774,-2835375,-3894352,164254769,95955,83811,-66083,-0.1697114883041382,-0.23309660059082035,9.831476015709535,0.02218417636871338,0.019376561988830567,-0.015277962867736817,61,fe60fe00,0.0,0.0,0.0,0.0,0.0,0.0
2026-05-26 15:27:07.511958,1779823627.511958,-2835375,-3894352,164254769,95955,83811,-66083,-0.1697114883041382,-0.23309660059082035,9.831476015709535,0.02218417636871338,0.019376561988830567,-0.015277962867736817,61,fe60fe00,0.0,0.0,0.0,0.0,0.0,0.0
2026-05-26 15:27:07.512598,1779823627.512598,-2840928,-3882320,164475170,121093,9342,-106051,-0.1700438633496094,-0.23237642473144535,9.844668126712037,0.0279959196395874,0.002159810073852539,-0.024518306373596192,61,fe60fe00,0.0,0.0,0.0,0.0,0.0,0.0
2026-05-26 15:27:07.513666,1779823627.513666,-2840928,-3882320,164475170,121093,9342,-106051,-0.1700438633496094,-0.23237642473144535,9.844668126712037,0.0279959196395874,0.002159810073852539,-0.024518306373596192,61,fe60fe00,0.0,0.0,0.0,0.0,0.0,0.0
2026-05-26 15:27:07.514276,1779823627.514276,-2619729,-3899495,164341617,40749,-3840,-150093,-0.15680398802398685,-0.23340443506927494,9.836674306354066,0.009420905662536621,-0.000887783203125,-0.034700532371520994,61,fe60fe00,0.0,0.0,0.0,0.0,0.0,0.0
2026-05-26 15:27:07.515377,1779823627.515377,-2619729,-3899495,164341617,40749,-3840,-150093,-0.15680398802398685,-0.23340443506927494,9.836674306354066,0.009420905662536621,-0.000887783203125,-0.034700532371520994,61,fe60fe00,0.0,0.0,0.0,0.0,0.0,0.0
2026-05-26 15:27:07.515991,1779823627.515991,-2558537,-3747783,163583067,-7401,93861,-145150,-0.1531413383242798,-0.22432370701263432,9.791271264621278,-0.0017110634078979492,0.021700057090759277,-0.03355774269104004,61,fe5ffe00,0.0,0.0,0.0,0.0,0.0,0.0
2026-05-26 15:27:07.516992,1779823627.516992,-2558537,-3747783,163583067,-7401,93861,-145150,-0.1531413383242798,-0.22432370701263432,9.791271264621278,-0.0017110634078979492,0.021700057090759277,-0.03355774269104004,61,fe5ffe00,0.0,0.0,0.0,0.0,0.0,0.0
2026-05-26 15:27:07.517639,1779823627.517639,-2571210,-3531924,163569986,-14577,104554,-138709,-0.1538998812652588,-0.2114034576086426,9.790488300823366,-0.003370108268737793,0.02417220964050293,-0.03206862508392334,61,fe5ffe00,0.0,0.0,0.0,0.0,0.0,0.0
2026-05-26 15:27:07.518696,1779823627.518696,-2571210,-3531924,163569986,-14577,104554,-138709,-0.1538998812652588,-0.2114034576086426,9.790488300823366,-0.003370108268737793,0.02417220964050293,-0.03206862508392334,61,fe5ffe00,0.0,0.0,0.0,0.0,0.0,0.0
2026-05-26 15:27:07.519335,1779823627.519335,-2587877,-3294209,164164249,23970,135834,-80777,-0.15489748524200442,-0.19717501641754154,9.826057937352601,0.005541709213256836,0.03140394364929199,-0.018675120780944823,61,fe5ffe00,0.0,0.0,0.0,0.0,0.0,0.0
2026-05-26 15:27:07.520390,1779823627.520390,-2587877,-3294209,164164249,23970,135834,-80777,-0.15489748524200442,-0.19717501641754154,9.826057937352601,0.005541709213256836,0.03140394364929199,-0.018675120780944823,61,fe5ffe00,0.0,0.0,0.0,0.0,0.0,0.0
2026-05-26 15:27:07.521011,1779823627.521011,-2710721,-3319613,164243960,7953,28253,-17119,-0.1622503179605103,-0.19869557389190676,9.83082904256592,0.001838682243347168,0.006531911155700684,-0.003957802253723145,61,fe5ffe00,0.0,0.0,0.0,0.0,0.0,0.0
2026-05-26 15:27:07.522073,1779823627.522073,-2710721,-3319613,164243960,7953,28253,-17119,-0.1622503179605103,-0.19869557389190676,9.83082904256592,0.001838682243347168,0.006531911155700684,-0.003957802253723145,61,fe5ffe00,0.0,0.0,0.0,0.0,0.0,0.0
2026-05-26 15:27:07.522721,1779823627.522721,-2653813,-3362569,164156154,-47996,-13530,27033,-0.158844087258606,-0.20126670705474856,9.825573410791627,-0.011096365264892579,-0.0031280486297607423,0.006249855033874512,61,fe5ffe00,0.0,0.0,0.0,0.0,0.0,0.0
2026-05-26 15:27:07.523820,1779823627.523820,-2653813,-3362569,164156154,-47996,-13530,27033,-0.158844087258606,-0.20126670705474856,9.825573410791627,-0.011096365264892579,-0.0031280486297607423,0.006249855033874512,61,fe5ffe00,0.0,0.0,0.0,0.0,0.0,0.0
2026-05-26 15:27:07.524437,1779823627.524437,-2312427,-3622643,163530820,-163207,-37317,47688,-0.13841041405975343,-0.21683344711883548,9.788144018267824,-0.037732404487609866,-0.008627449424743652,0.011025157653808593,61,fe5ffe00,0.0,0.0,0.0,0.0,0.0,0.0
2026-05-26 15:27:07.525468,1779823627.525468,-2312427,-3622643,163530820,-163207,-37317,47688,-0.13841041405975343,-0.21683344711883548,9.788144018267824,-0.037732404487609866,-0.008627449424743652,0.011025157653808593,61,fe5ffe00,0.0,0.0,0.0,0.0,0.0,0.0
2026-05-26 15:27:07.526088,1779823627.526088,-2259536,-3800620,163293525,-69842,141069,59717,-0.13524462105957033,-0.2274862678405762,9.773940716194154,-0.016147019393920898,0.032614241844177244,0.013806184776306152,61,fe5ffe00,0.0,0.0,0.0,0.0,0.0,0.0
2026-05-26 15:27:07.527131,1779823627.527131,-2259536,-3800620,163293525,-69842,141069,59717,-0.13524462105957033,-0.2274862678405762,9.773940716194154,-0.016147019393920898,0.032614241844177244,0.013806184776306152,61,fe5ffe00,0.0,0.0,0.0,0.0,0.0,0.0
2026-05-26 15:27:07.527720,1779823627.527720,-2507977,-3940545,164110319,-60426,55247,35648,-0.1501150674258423,-0.23586148452301028,9.822829954964297,-0.013970100997924804,0.012772749641418456,0.00824158740234375,61,fe5ffe00,0.0,0.0,0.0,0.0,0.0,0.0
2026-05-26 15:27:07.528743,1779823627.528743,-2507977,-3940545,164110319,-60426,55247,35648,-0.1501150674258423,-0.23586148452301028,9.822829954964297,-0.013970100997924804,0.012772749641418456,0.00824158740234375,61,fe5ffe00,0.0,0.0,0.0,0.0,0.0,0.0
2026-05-26 15:27:07.529347,1779823627.529347,-2750822,-3785844,164502038,-55037,101610,56675,-0.16465056497985842,-0.22660184974731448,9.846276311967165,-0.01272419899749756,0.02349157585144043,0.013102894020080566,61,fe5ffe00,0.0,0.0,0.0,0.0,0.0,0.0
2026-05-26 15:27:07.530424,1779823627.530424,-2750822,-3785844,164502038,-55037,101610,56675,-0.16465056497985842,-0.22660184974731448,9.846276311967165,-0.01272419899749756,0.02349157585144043,0.013102894020080566,61,fe5ffe00,0.0,0.0,0.0,0.0,0.0,0.0
2026-05-26 15:27:07.531028,1779823627.531028,-3157094,-3565068,164300485,-65151,3185,56980,-0.18896799240173343,-0.2133872931042481,9.834212348786927,-0.01506249048614502,0.000736351432800293,0.01317340805053711,61,fe5ffe00,0.0,0.0,0.0,0.0,0.0,0.0
2026-05-26 15:27:07.532089,1779823627.532089,-3157094,-3565068,164300485,-65151,3185,56980,-0.18896799240173343,-0.2133872931042481,9.834212348786927,-0.01506249048614502,0.000736351432800293,0.01317340805053711,61,fe5ffe00,0.0,0.0,0.0,0.0,0.0,0.0
2026-05-26 15:27:07.532701,1779823627.532701,-2853346,-3542644,164321368,-115824,-101520,116195,-0.1707871432550049,-0.2120451036535645,9.835462301618653,-0.026777760864257812,-0.023470768432617188,0.026863533668518066,61,fe5ffe00,0.0,0.0,0.0,0.0,0.0,0.0
2026-05-26 15:27:07.533765,1779823627.533765,-2853346,-3542644,164321368,-115824,-101520,116195,-0.1707871432550049,-0.2120451036535645,9.835462301618653,-0.026777760864257812,-0.023470768432617188,0.026863533668518066,61,fe5ffe00,0.0,0.0,0.0,0.0,0.0,0.0
2026-05-26 15:27:07.534410,1779823627.534410,-2349805,-3703325,163832102,-4859,-43623,169947,-0.14064767580108645,-0.22166267157745365,9.806177264882203,-0.0011233694229125977,-0.010085355903625488,0.03929064896392822,61,fe5ffe00,0.0,0.0,0.0,0.0,0.0,0.0
2026-05-26 15:27:07.535519,1779823627.535519,-2349805,-3703325,163832102,-4859,-43623,169947,-0.14064767580108645,-0.22166267157745365,9.806177264882203,-0.0011233694229125977,-0.010085355903625488,0.03929064896392822,61,fe5ffe00,0.0,0.0,0.0,0.0,0.0,0.0
2026-05-26 15:27:07.536136,1779823627.536136,-2299592,-3863671,163854903,6426,-12045,215931,-0.1376421746020508,-0.231260188062439,9.807542019683535,0.0014856497039794922,-0.002784726219177246,0.049921852821350095,61,fe5efe00,0.0,0.0,0.0,0.0,0.0,0.0
2026-05-26 15:27:07.537205,1779823627.537205,-2299592,-3863671,163854903,6426,-12045,215931,-0.1376421746020508,-0.231260188062439,9.807542019683535,0.0014856497039794922,-0.002784726219177246,0.049921852821350095,61,fe5efe00,0.0,0.0,0.0,0.0,0.0,0.0
2026-05-26 15:27:07.537812,1779823627.537812,-2455606,-3801883,164696505,43350,31032,227046,-0.14698039904724122,-0.22756186475799564,9.857916142323305,0.010022240066528321,0.0071743980102539065,0.05249156904602051,61,fe5efe00,0.0,0.0,0.0,0.0,0.0,0.0
2026-05-26 15:27:07.538857,1779823627.538857,-2455606,-3801883,164696505,43350,31032,227046,-0.14698039904724122,-0.22756186475799564,9.857916142323305,0.010022240066528321,0.0071743980102539065,0.05249156904602051,61,fe5efe00,0.0,0.0,0.0,0.0,0.0,0.0
2026-05-26 15:27:07.541748,1779823627.541748,-2820725,-3749719,164978584,2781,-14182,210817,-0.168834611946106,-0.22443958637298586,9.874799992575685,0.0006429492416381836,-0.0032787868194580076,0.04873952904510498,61,fe5efe00,0.0,0.0,0.0,0.0,0.0,0.0
2026-05-26 15:27:07.546338,1779823627.546338,-2820725,-3749719,164978584,2781,-14182,210817,-0.168834611946106,-0.22443958637298586,9.874799992575685,0.0006429492416381836,-0.0032787868194580076,0.04873952904510498,61,fe5efe00,0.0,0.0,0.0,0.0,0.0,0.0
2026-05-26 15:27:07.548586,1779823627.548586,-2913221,-3892473,164895351,86705,-154274,185596,-0.1743709638650513,-0.23298413296783452,9.86981807790619,0.020045636100769045,-0.03566715257263184,0.042908596710205076,61,fe5efe00,0.0,0.0,0.0,0.0,0.0,0.0
2026-05-26 15:27:07.549681,1779823627.549681,-2913221,-3892473,164895351,86705,-154274,185596,-0.1743709638650513,-0.23298413296783452,9.86981807790619,0.020045636100769045,-0.03566715257263184,0.042908596710205076,61,fe5efe00,0.0,0.0,0.0,0.0,0.0,0.0
2026-05-26 15:27:07.618252,1779823627.618252,-2491101,-4078928,164452672,63159,-221639,153074,-0.14910495374542238,-0.24414440473144536,9.843321507988282,0.014601952949523926,-0.05124150556182861,0.03538972032165527,61,fe5efe00,0.0,0.0,0.0,0.0,0.0,0.0
2026-05-26 15:27:07.619418,1779823627.619418,-2491101,-4078928,164452672,63159,-221639,153074,-0.14910495374542238,-0.24414440473144536,9.843321507988282,0.014601952949523926,-0.05124150556182861,0.03538972032165527,61,fe5efe00,0.0,0.0,0.0,0.0,0.0,0.0
2026-05-26 15:27:07.620289,1779823627.620289,-2285290,-3815440,163905175,74011,-61557,122326,-0.13678612779846194,-0.2283733195556641,9.810551052330018,0.017110865272521973,-0.014231580894470216,0.02828098127746582,61,fe5efe00,0.0,0.0,0.0,0.0,0.0,0.0
2026-05-26 15:27:07.621369,1779823627.621369,-2285290,-3815440,163905175,74011,-61557,122326,-0.13678612779846194,-0.2283733195556641,9.810551052330018,0.017110865272521973,-0.014231580894470216,0.02828098127746582,61,fe5efe00,0.0,0.0,0.0,0.0,0.0,0.0
2026-05-26 15:27:07.621997,1779823627.621997,-2527318,-3527742,164588103,23504,-10606,111359,-0.15127272378356935,-0.21115314382507328,9.851427736114198,0.0054339730224609376,-0.0024520387115478516,0.02574548169708252,61,fe5efe00,0.0,0.0,0.0,0.0,0.0,0.0
2026-05-26 15:27:07.623110,1779823627.623110,-2527318,-3527742,164588103,23504,-10606,111359,-0.15127272378356935,-0.21115314382507328,9.851427736114198,0.0054339730224609376,-0.0024520387115478516,0.02574548169708252,61,fe5efe00,0.0,0.0,0.0,0.0,0.0,0.0
2026-05-26 15:27:07.623730,1779823627.623730,-2626999,-3181865,165338771,-43267,-21938,135286,-0.15723913417572025,-0.19045066163482668,9.896359000409852,-0.010003051002502442,-0.005071923934936523,0.031277249588012694,61,fe5efe00,0.0,0.0,0.0,0.0,0.0,0.0
2026-05-26 15:27:07.624807,1779823627.624807,-2626999,-3181865,165338771,-43267,-21938,135286,-0.15723913417572025,-0.19045066163482668,9.896359000409852,-0.010003051002502442,-0.005071923934936523,0.031277249588012694,61,fe5efe00,0.0,0.0,0.0,0.0,0.0,0.0
2026-05-26 15:27:07.625414,1779823627.625414,-2651426,-3236486,164677735,-67620,-92100,176828,-0.15870121327453615,-0.19372000385681154,9.856792663194277,-0.015633307342529296,-0.021292925262451173,0.040881491729736326,61,fe5efe00,0.0,0.0,0.0,0.0,0.0,0.0
2026-05-26 15:27:07.626466,1779823627.626466,-2651426,-3236486,164677735,-67620,-92100,176828,-0.15870121327453615,-0.19372000385681154,9.856792663194277,-0.015633307342529296,-0.021292925262451173,0.040881491729736326,61,fe5efe00,0.0,0.0,0.0,0.0,0.0,0.0
2026-05-26 15:27:07.627085,1779823627.627085,-2487606,-3392104,164263798,-74061,-63890,183026,-0.14889576037536623,-0.20303452570556643,9.832016446879274,-0.017122424949645994,-0.014770955429077148,0.04231442930603027,61,fe5efe00,0.0,0.0,0.0,0.0,0.0,0.0
2026-05-26 15:27:07.628142,1779823627.628142,-2487606,-3392104,164263798,-74061,-63890,183026,-0.14889576037536623,-0.20303452570556643,9.832016446879274,-0.017122424949645994,-0.014770955429077148,0.04231442930603027,61,fe5efe00,0.0,0.0,0.0,0.0,0.0,0.0
2026-05-26 15:27:07.628746,1779823627.628746,-2192450,-3592432,164363183,-135884,-42256,187631,-0.13122918574523929,-0.21502516645996098,9.83796514017914,-0.03141550332641602,-0.009769314331054688,0.04337907556915283,61,fe5efe00,0.0,0.0,0.0,0.0,0.0,0.0
2026-05-26 15:27:07.629809,1779823627.629809,-2192450,-3592432,164363183,-135884,-42256,187631,-0.13122918574523929,-0.21502516645996098,9.83796514017914,-0.03141550332641602,-0.009769314331054688,0.04337907556915283,61,fe5efe00,0.0,0.0,0.0,0.0,0.0,0.0
2026-05-26 15:27:07.630422,1779823627.630422,-2072744,-3846266,164496004,-172843,46081,174358,-0.12406417814697267,-0.23021841106506352,9.84591514664673,-0.03996018546295166,0.01065362963104248,0.04031044367980957,61,fe5efe00,0.0,0.0,0.0,0.0,0.0,0.0
2026-05-26 15:27:07.631549,1779823627.631549,-2072744,-3846266,164496004,-172843,46081,174358,-0.12406417814697267,-0.23021841106506352,9.84591514664673,-0.03996018546295166,0.01065362963104248,0.04031044367980957,61,fe5efe00,0.0,0.0,0.0,0.0,0.0,0.0
2026-05-26 15:27:07.632207,1779823627.632207,-2159084,-4086807,164506266,-142878,-949,129816,-0.12923206243041993,-0.24461600260345462,9.846529379082643,-0.033032470962524416,-0.00021940267181396484,0.030012620910644532,61,fe5efe00,0.0,0.0,0.0,0.0,0.0,0.0
2026-05-26 15:27:07.633350,1779823627.633350,-2159084,-4086807,164506266,-142878,-949,129816,-0.12923206243041993,-0.24461600260345462,9.846529379082643,-0.033032470962524416,-0.00021940267181396484,0.030012620910644532,61,fe5efe00,0.0,0.0,0.0,0.0,0.0,0.0
2026-05-26 15:27:07.634053,1779823627.634053,-2251222,-4240987,164311956,-134029,102078,69974,-0.13474698624450684,-0.2538444529025269,9.83489894596802,-0.030986639305114746,0.02359977442932129,0.01617753694152832,61,fe5efe00,0.0,0.0,0.0,0.0,0.0,0.0
2026-05-26 15:27:07.635186,1779823627.635186,-2251222,-4240987,164311956,-134029,102078,69974,-0.13474698624450684,-0.2538444529025269,9.83489894596802,-0.030986639305114746,0.02359977442932129,0.01617753694152832,61,fe5efe00,0.0,0.0,0.0,0.0,0.0,0.0
2026-05-26 15:27:07.635827,1779823627.635827,-2712853,-3991771,164180836,-78818,135659,3532,-0.1623779289089966,-0.2389276188790894,9.827050752926027,-0.018222212631225587,0.03136348477935791,0.0008165755920410157,61,fe5efe00,0.0,0.0,0.0,0.0,0.0,0.0
2026-05-26 15:27:07.636922,1779823627.636922,-2712853,-3991771,164180836,-78818,135659,3532,-0.1623779289089966,-0.2389276188790894,9.827050752926027,-0.018222212631225587,0.03136348477935791,0.0008165755920410157,61,fe5efe00,0.0,0.0,0.0,0.0,0.0,0.0
2026-05-26 15:27:07.637562,1779823627.637562,-2581896,-3850631,164565880,-87423,27020,-34670,-0.15453949223876956,-0.23047967832122807,9.850097577526856,-0.02021163306427002,0.006246849517822266,-0.008015480117797852,61,fe5efe00,0.0,0.0,0.0,0.0,0.0,0.0
2026-05-26 15:27:07.638648,1779823627.638648,-2581896,-3850631,164565880,-87423,27020,-34670,-0.15453949223876956,-0.23047967832122807,9.850097577526856,-0.02021163306427002,0.006246849517822266,-0.008015480117797852,61,fe5efe00,0.0,0.0,0.0,0.0,0.0,0.0
2026-05-26 15:27:07.639337,1779823627.639337,-2199880,-3971526,163853684,-60627,28922,-28634,-0.1316739087036133,-0.2377158535638428,9.80746905638794,-0.014016570899963379,0.006686579635620117,-0.006619995895385742,61,fe5dfe00,0.0,0.0,0.0,0.0,0.0,0.0
2026-05-26 15:27:07.640479,1779823627.640479,-2199880,-3971526,163853684,-60627,28922,-28634,-0.1316739087036133,-0.2377158535638428,9.80746905638794,-0.014016570899963379,0.006686579635620117,-0.006619995895385742,61,fe5dfe00,0.0,0.0,0.0,0.0,0.0,0.0
2026-05-26 15:27:07.641100,1779823627.641100,-2118108,-4099710,163236443,15631,114557,1153,-0.12677944224975587,-0.24538831220397953,9.770524070715028,0.003613786262512207,0.02648483864593506,0.0002665661544799805,61,fe5dfe00,0.0,0.0,0.0,0.0,0.0,0.0
2026-05-26 15:27:07.642138,1779823627.642138,-2118108,-4099710,163236443,15631,114557,1153,-0.12677944224975587,-0.24538831220397953,9.770524070715028,0.003613786262512207,0.02648483864593506,0.0002665661544799805,61,fe5dfe00,0.0,0.0,0.0,0.0,0.0,0.0
2026-05-26 15:27:07.642727,1779823627.642727,-2434232,-4068625,164075269,61251,175872,8506,-0.14570105739013675,-0.2435277182388306,9.820732035759583,0.01416083567047119,0.040660470703125,0.001966532272338867,61,fe5dfe00,0.0,0.0,0.0,0.0,0.0,0.0
2026-05-26 15:27:07.643802,1779823627.643802,-2434232,-4068625,164075269,61251,175872,8506,-0.14570105739013675,-0.2435277182388306,9.820732035759583,0.01416083567047119,0.040660470703125,0.001966532272338867,61,fe5dfe00,0.0,0.0,0.0,0.0,0.0,0.0
2026-05-26 15:27:07.644413,1779823627.644413,-2900495,-3903051,164613855,56663,151590,45794,-0.17360924860687257,-0.23361727959686282,9.852969123143007,0.0131001196975708,0.03504662910461426,0.010587277084350586,61,fe5dfe00,0.0,0.0,0.0,0.0,0.0,0.0
2026-05-26 15:27:07.645530,1779823627.645530,-2900495,-3903051,164613855,56663,151590,45794,-0.17360924860687257,-0.23361727959686282,9.852969123143007,0.0131001196975708,0.03504662910461426,0.010587277084350586,61,fe5dfe00,0.0,0.0,0.0,0.0,0.0,0.0
2026-05-26 15:27:07.646204,1779823627.646204,-3038357,-4075838,164308681,106087,-10418,33357,-0.1818609843386841,-0.24395945265319827,9.834702920707093,0.024526629341125487,-0.0024085743255615236,0.007711922996520996,61,fe5dfe00,0.0,0.0,0.0,0.0,0.0,0.0
2026-05-26 15:27:07.647317,1779823627.647317,-3038357,-4075838,164308681,106087,-10418,33357,-0.1818609843386841,-0.24395945265319827,9.834702920707093,0.024526629341125487,-0.0024085743255615236,0.007711922996520996,61,fe5dfe00,0.0,0.0,0.0,0.0,0.0,0.0
2026-05-26 15:27:07.647963,1779823627.647963,-2614906,-4328572,163736470,137934,-29609,37334,-0.1565153071588135,-0.25908685671264653,9.800453207553103,0.03188945008850098,-0.006845409599304199,0.00863137971496582,61,fe5dfe00,0.0,0.0,0.0,0.0,0.0,0.0
2026-05-26 15:27:07.649075,1779823627.649075,-2614906,-4328572,163736470,137934,-29609,37334,-0.1565153071588135,-0.25908685671264653,9.800453207553103,0.03188945008850098,-0.006845409599304199,0.00863137971496582,61,fe5dfe00,0.0,0.0,0.0,0.0,0.0,0.0
2026-05-26 15:27:07.649689,1779823627.649689,-2443497,-4336374,163528059,235109,105318,11980,-0.14625561434967044,-0.25955384574646,9.787978758498232,0.054355682579040526,0.024348841506958006,0.0027696986389160157,61,fe5dfe00,0.0,0.0,0.0,0.0,0.0,0.0
2026-05-26 15:27:07.650729,1779823627.650729,-2443497,-4336374,163528059,235109,105318,11980,-0.14625561434967044,-0.25955384574646,9.787978758498232,0.054355682579040526,0.024348841506958006,0.0027696986389160157,61,fe5dfe00,0.0,0.0,0.0,0.0,0.0,0.0
2026-05-26 15:27:07.651383,1779823627.651383,-2710596,-4091845,164106506,181603,123957,-723,-0.16224283608032228,-0.2449175523025513,9.822601727691042,0.041985440895080564,0.028658057945251465,-0.0001671529312133789,61,fe5dfe00,0.0,0.0,0.0,0.0,0.0,0.0
2026-05-26 15:27:07.652531,1779823627.652531,-2710596,-4091845,164106506,181603,123957,-723,-0.16224283608032228,-0.2449175523025513,9.822601727691042,0.041985440895080564,0.028658057945251465,-0.0001671529312133789,61,fe5dfe00,0.0,0.0,0.0,0.0,0.0,0.0
2026-05-26 15:27:07.653204,1779823627.653204,-2768720,-3742435,164573055,165221,77506,-12338,-0.16572185051269533,-0.22400360225067142,9.850527037449647,0.03819802828216553,0.01791888670349121,-0.0028524659271240236,61,fe5dfe00,0.0,0.0,0.0,0.0,0.0,0.0
2026-05-26 15:27:07.654299,1779823627.654299,-2768720,-3742435,164573055,165221,77506,-12338,-0.16572185051269533,-0.22400360225067142,9.850527037449647,0.03819802828216553,0.01791888670349121,-0.0028524659271240236,61,fe5dfe00,0.0,0.0,0.0,0.0,0.0,0.0
2026-05-26 15:27:07.654905,1779823627.654905,-2760885,-3600184,163882092,182622,15335,8899,-0.16525288626251222,-0.21548916274169924,9.809169418406984,0.042221027114868165,0.0035453529739379883,0.0020573913345336915,61,fe5dfe00,0.0,0.0,0.0,0.0,0.0,0.0
2026-05-26 15:27:07.655967,1779823627.655967,-2760885,-3600184,163882092,182622,15335,8899,-0.16525288626251222,-0.21548916274169924,9.809169418406984,0.042221027114868165,0.0035453529739379883,0.0020573913345336915,61,fe5dfe00,0.0,0.0,0.0,0.0,0.0,0.0
2026-05-26 15:27:07.656579,1779823627.656579,-2692542,-3570647,164008941,280503,38495,32786,-0.16116221316101076,-0.21372122438079838,9.816761970566713,0.06485048224639893,0.008899795417785645,0.007579911483764648,61,fe5dfe00,0.0,0.0,0.0,0.0,0.0,0.0
2026-05-26 15:27:07.657650,1779823627.657650,-2692542,-3570647,164008941,280503,38495,32786,-0.16116221316101076,-0.21372122438079838,9.816761970566713,0.06485048224639893,0.008899795417785645,0.007579911483764648,61,fe5dfe00,0.0,0.0,0.0,0.0,0.0,0.0
2026-05-26 15:27:07.658269,1779823627.658269,-2582998,-3454342,164485752,151778,-50179,74539,-0.15460545249450686,-0.20675978377868656,9.845301512761232,0.035090093490600584,-0.011601060768127442,0.01723293546295166,61,fe5dfe00,0.0,0.0,0.0,0.0,0.0,0.0
2026-05-26 15:27:07.659349,1779823627.659349,-2582998,-3454342,164485752,151778,-50179,74539,-0.15460545249450686,-0.20675978377868656,9.845301512761232,0.035090093490600584,-0.011601060768127442,0.01723293546295166,61,fe5dfe00,0.0,0.0,0.0,0.0,0.0,0.0
2026-05-26 15:27:07.659966,1779823627.659966,-2427671,-3502158,164253728,100061,38282,102297,-0.1453083484628296,-0.20962181244323733,9.831413706611329,0.023133457054138183,0.008850551193237305,0.023650405815124512,61,fe5dfe00,0.0,0.0,0.0,0.0,0.0,0.0
2026-05-26 15:27:07.661042,1779823627.661042,-2427671,-3502158,164253728,100061,38282,102297,-0.1453083484628296,-0.20962181244323733,9.831413706611329,0.023133457054138183,0.008850551193237305,0.023650405815124512,61,fe5dfe00,0.0,0.0,0.0,0.0,0.0,0.0
2026-05-26 15:27:07.661660,1779823627.661660,-2621841,-3685315,163994293,61467,8104,103723,-0.1569304018716431,-0.2205846822799683,9.815885213918763,0.014210773475646973,0.0018735924682617188,0.02398008780670166,61,fe5dfe00,0.0,0.0,0.0,0.0,0.0,0.0
2026-05-26 15:27:07.662752,1779823627.662752,-2621841,-3685315,163994293,61467,8104,103723,-0.1569304018716431,-0.2205846822799683,9.815885213918763,0.014210773475646973,0.0018735924682617188,0.02398008780670166,61,fe5dfe00,0.0,0.0,0.0,0.0,0.0,0.0
2026-05-26 15:27:07.663395,1779823627.663395,-2787479,-3735790,164538988,93061,112537,79986,-0.16684467123626712,-0.22360586549987796,9.848487955750734,0.0215151022567749,0.026017827690124513,0.018492246688842775,61,fe5dfe00,0.0,0.0,0.0,0.0,0.0,0.0
2026-05-26 15:27:07.664514,1779823627.664514,-2787479,-3735790,164538988,93061,112537,79986,-0.16684467123626712,-0.22360586549987796,9.848487955750734,0.0215151022567749,0.026017827690124513,0.018492246688842775,61,fe5dfe00,0.0,0.0,0.0,0.0,0.0,0.0
2026-05-26 15:27:07.665157,1779823627.665157,-3236293,-3564028,165011418,61354,39992,79106,-0.1937084518338013,-0.213325043861084,9.876765273008424,0.01418464860534668,0.009245892150878907,0.01828879637145996,61,fe5cfe00,0.0,0.0,0.0,0.0,0.0,0.0
2026-05-26 15:27:07.666307,1779823627.666307,-3236293,-3564028,165011418,61354,39992,79106,-0.1937084518338013,-0.213325043861084,9.876765273008424,0.01418464860534668,0.009245892150878907,0.01828879637145996,61,fe5cfe00,0.0,0.0,0.0,0.0,0.0,0.0
2026-05-26 15:27:07.666936,1779823627.666936,-3134593,-3423119,165049876,-81,-113406,88307,-0.18762119411285402,-0.2048909298178101,9.879067178194582,-1.872667694091797e-05,-0.02621873487854004,0.020416008155822753,61,fe5cfe00,0.0,0.0,0.0,0.0,0.0,0.0
2026-05-26 15:27:07.668044,1779823627.668044,-3134593,-3423119,165049876,-81,-113406,88307,-0.18762119411285402,-0.2048909298178101,9.879067178194582,-1.872667694091797e-05,-0.02621873487854004,0.020416008155822753,61,fe5cfe00,0.0,0.0,0.0,0.0,0.0,0.0
2026-05-26 15:27:07.668699,1779823627.668699,-2485010,-3612547,163973142,-22018,-186241,102902,-0.14874037668762208,-0.21622915061981204,9.814619219935915,-0.005090419418334961,-0.04305771654510498,0.023790277908325195,61,fe5cfe00,0.0,0.0,0.0,0.0,0.0,0.0
2026-05-26 15:27:07.669779,1779823627.669779,-2485010,-3612547,163973142,-22018,-186241,102902,-0.14874037668762208,-0.21622915061981204,9.814619219935915,-0.005090419418334961,-0.04305771654510498,0.023790277908325195,61,fe5cfe00,0.0,0.0,0.0,0.0,0.0,0.0
2026-05-26 15:27:07.670402,1779823627.670402,-2147348,-3606831,163359910,57946,44032,124476,-0.1285296036633301,-0.21588701920257572,9.77791419312439,0.013396741012573243,0.0101799140625,0.028778047393798828,61,fe5cfe00,0.0,0.0,0.0,0.0,0.0,0.0
2026-05-26 15:27:07.671521,1779823627.671521,-2147348,-3606831,163359910,57946,44032,124476,-0.1285296036633301,-0.21588701920257572,9.77791419312439,0.013396741012573243,0.0101799140625,0.028778047393798828,61,fe5cfe00,0.0,0.0,0.0,0.0,0.0,0.0
2026-05-26 15:27:07.672185,1779823627.672185,-2424843,-3469062,164638443,91336,69512,130413,-0.14513907840545656,-0.20764084998962407,9.854440838903505,0.021116293395996095,0.016070725524902345,0.03015064345550537,61,fe5cfe00,0.0,0.0,0.0,0.0,0.0,0.0
2026-05-26 15:27:07.673307,1779823627.673307,-2424843,-3469062,164638443,91336,69512,130413,-0.14513907840545656,-0.20764084998962407,9.854440838903505,0.021116293395996095,0.016070725524902345,0.03015064345550537,61,fe5cfe00,0.0,0.0,0.0,0.0,0.0,0.0
2026-05-26 15:27:07.673981,1779823627.673981,-2648567,-3253810,165459326,-21125,48475,159466,-0.15853008771087648,-0.19475693259582522,9.903574824938357,-0.004883963584899903,0.011207106971740722,0.03686750944519043,61,fe5cfe00,0.0,0.0,0.0,0.0,0.0,0.0
2026-05-26 15:27:07.675055,1779823627.675055,-2648567,-3253810,165459326,-21125,48475,159466,-0.15853008771087648,-0.19475693259582522,9.903574824938357,-0.004883963584899903,0.011207106971740722,0.03686750944519043,61,fe5cfe00,0.0,0.0,0.0,0.0,0.0,0.0
2026-05-26 15:27:07.675699,1779823627.675699,-2809856,-3352325,164557434,-20320,-69977,160095,-0.16818404750000002,-0.20065355200958254,9.849592041846314,-0.004697852783203125,-0.01617823052215576,0.03701293018341065,61,fe5cfe00,0.0,0.0,0.0,0.0,0.0,0.0
2026-05-26 15:27:07.676755,1779823627.676755,-2809856,-3352325,164557434,-20320,-69977,160095,-0.16818404750000002,-0.20065355200958254,9.849592041846314,-0.004697852783203125,-0.01617823052215576,0.03701293018341065,61,fe5cfe00,0.0,0.0,0.0,0.0,0.0,0.0
2026-05-26 15:27:07.677388,1779823627.677388,-2408623,-3667178,163775666,-16288,-104825,126746,-0.1441682296322632,-0.21949909139221194,9.802799285759889,-0.003765680419921875,-0.024234863090515136,0.02930285673522949,61,fe5cfe00,0.0,0.0,0.0,0.0,0.0,0.0
2026-05-26 15:27:07.678448,1779823627.678448,-2408623,-3667178,163775666,-16288,-104825,126746,-0.1441682296322632,-0.21949909139221194,9.802799285759889,-0.003765680419921875,-0.024234863090515136,0.02930285673522949,61,fe5cfe00,0.0,0.0,0.0,0.0,0.0,0.0
2026-05-26 15:27:07.679086,1779823627.679086,-2372483,-3704071,163771645,81083,75872,117794,-0.14200506843231203,-0.22170732343841557,9.802558608638002,0.018745866004943847,0.017541116455078123,0.027233212142944337,61,fe5cfe00,0.0,0.0,0.0,0.0,0.0,0.0
2026-05-26 15:27:07.680153,1779823627.680153,-2372483,-3704071,163771645,81083,75872,117794,-0.14200506843231203,-0.22170732343841557,9.802558608638002,0.018745866004943847,0.017541116455078123,0.027233212142944337,61,fe5cfe00,0.0,0.0,0.0,0.0,0.0,0.0
2026-05-26 15:27:07.680774,1779823627.680774,-2803725,-3694328,164613265,6699,24457,97117,-0.16781707624053957,-0.221124155769043,9.852933808668519,0.0015487655410766602,0.005654300468444824,0.022452823265075684,61,fe5cfe00,0.0,0.0,0.0,0.0,0.0,0.0
2026-05-26 15:27:07.681838,1779823627.681838,-2803725,-3694328,164613265,6699,24457,97117,-0.16781707624053957,-0.221124155769043,9.852933808668519,0.0015487655410766602,0.005654300468444824,0.022452823265075684,61,fe5cfe00,0.0,0.0,0.0,0.0,0.0,0.0
2026-05-26 15:27:07.682506,1779823627.682506,-2982365,-3555267,165054127,-11211,-69062,76461,-0.1785095808547974,-0.2128006538424683,9.879321621976015,-0.002591910804748535,-0.015966688430786132,0.01767728945159912,61,fe5cfe00,0.0,0.0,0.0,0.0,0.0,0.0
2026-05-26 15:27:07.683691,1779823627.683691,-2982365,-3555267,165054127,-11211,-69062,76461,-0.1785095808547974,-0.2128006538424683,9.879321621976015,-0.002591910804748535,-0.015966688430786132,0.01767728945159912,61,fe5cfe00,0.0,0.0,0.0,0.0,0.0,0.0
2026-05-26 15:27:07.684338,1779823627.684338,-2754251,-3664282,164035190,14132,-141347,55861,-0.16485580791717533,-0.21932575119201664,9.81833310555115,0.0032672271423339846,-0.032678513648986815,0.012914702476501465,61,fe5cfe00,0.0,0.0,0.0,0.0,0.0,0.0
2026-05-26 15:27:07.685408,1779823627.685408,-2754251,-3664282,164035190,14132,-141347,55861,-0.16485580791717533,-0.21932575119201664,9.81833310555115,0.0032672271423339846,-0.032678513648986815,0.012914702476501465,61,fe5cfe00,0.0,0.0,0.0,0.0,0.0,0.0
2026-05-26 15:27:07.686053,1779823627.686053,-2403882,-3663506,163672132,129302,-32624,36839,-0.14388445688049317,-0.2192793036798096,9.796602253892823,0.02989378742980957,-0.007542458129882812,0.008516938911437988,61,fe5bfe00,0.0,0.0,0.0,0.0,0.0,0.0
2026-05-26 15:27:07.687127,1779823627.687127,-2403882,-3663506,163672132,129302,-32624,36839,-0.14388445688049317,-0.2192793036798096,9.796602253892823,0.02989378742980957,-0.007542458129882812,0.008516938911437988,61,fe5bfe00,0.0,0.0,0.0,0.0,0.0,0.0
2026-05-26 15:27:07.687744,1779823627.687744,-2155839,-3517819,164326445,64413,-24103,42614,-0.12903783282073977,-0.21055920224823002,9.835766185664369,0.014891869651794433,-0.005572457954406738,0.009852081619262695,61,fe5bfe00,0.0,0.0,0.0,0.0,0.0,0.0
2026-05-26 15:27:07.688802,1779823627.688802,-2155839,-3517819,164326445,64413,-24103,42614,-0.12903783282073977,-0.21055920224823002,9.835766185664369,0.014891869651794433,-0.005572457954406738,0.009852081619262695,61,fe5bfe00,0.0,0.0,0.0,0.0,0.0,0.0
2026-05-26 15:27:07.689431,1779823627.689431,-2129877,-3325607,164522167,-49260,31675,62578,-0.12748387623321536,-0.19905434501068117,9.847481134097597,-0.01138859390258789,0.007323055458068848,0.014467629501342774,61,fe5bfe00,0.0,0.0,0.0,0.0,0.0,0.0
2026-05-26 15:27:07.690509,1779823627.690509,-2129877,-3325607,164522167,-49260,31675,62578,-0.12748387623321536,-0.19905434501068117,9.847481134097597,-0.01138859390258789,0.007323055458068848,0.014467629501342774,61,fe5bfe00,0.0,0.0,0.0,0.0,0.0,0.0
2026-05-26 15:27:07.691170,1779823627.691170,-2505311,-3460517,164208209,-51155,1117,56543,-0.1499554938851929,-0.20712938865997318,9.828689164977114,-0.01182670566558838,0.00025824318695068357,0.013072376472473144,61,fe5bfe00,0.0,0.0,0.0,0.0,0.0,0.0
2026-05-26 15:27:07.692253,1779823627.692253,-2505311,-3460517,164208209,-51155,1117,56543,-0.1499554938851929,-0.20712938865997318,9.828689164977114,-0.01182670566558838,0.00025824318695068357,0.013072376472473144,61,fe5bfe00,0.0,0.0,0.0,0.0,0.0,0.0
2026-05-26 15:27:07.692923,1779823627.692923,-2537094,-3633050,164186424,-44726,-12166,57507,-0.15185786666931156,-0.21745635853576664,9.82738522289795,-0.010340362380981445,-0.0028127006378173827,0.013295247047424316,61,fe5cfe00,0.0,0.0,0.0,0.0,0.0,0.0
2026-05-26 15:27:07.694003,1779823627.694003,-2537094,-3633050,164186424,-44726,-12166,57507,-0.15185786666931156,-0.21745635853576664,9.82738522289795,-0.010340362380981445,-0.0028127006378173827,0.013295247047424316,61,fe5cfe00,0.0,0.0,0.0,0.0,0.0,0.0
2026-05-26 15:27:07.694664,1779823627.694664,-2632996,-3721546,164112107,-19386,62063,49574,-0.15759808485961915,-0.2227532902886963,9.822936975778505,-0.004481918014526368,0.014348564826965332,0.011461188674926757,61,fe5bfe00,0.0,0.0,0.0,0.0,0.0,0.0
2026-05-26 15:27:07.695782,1779823627.695782,-2632996,-3721546,164112107,-19386,62063,49574,-0.15759808485961915,-0.2227532902886963,9.822936975778505,-0.004481918014526368,0.014348564826965332,0.011461188674926757,61,fe5bfe00,0.0,0.0,0.0,0.0,0.0,0.0
2026-05-26 15:27:07.696412,1779823627.696412,-2693278,-3673964,164381093,-105459,10193,66603,-0.16120626647155764,-0.21990526770385746,9.839037143972474,-0.024381439796447753,0.002356555778503418,0.01539818350982666,61,fe5bfe00,0.0,0.0,0.0,0.0,0.0,0.0
2026-05-26 15:27:07.697535,1779823627.697535,-2693278,-3673964,164381093,-105459,10193,66603,-0.16120626647155764,-0.21990526770385746,9.839037143972474,-0.024381439796447753,0.002356555778503418,0.01539818350982666,61,fe5bfe00,0.0,0.0,0.0,0.0,0.0,0.0
2026-05-26 15:27:07.698170,1779823627.698170,-2376078,-3856936,164317085,-164035,5871,50920,-0.14222024730651858,-0.2308570643579102,9.835205942475893,-0.03792383274078369,0.0013573372879028321,0.011772375183105468,61,fe5bfe00,0.0,0.0,0.0,0.0,0.0,0.0
2026-05-26 15:27:07.699278,1779823627.699278,-2376078,-3856936,164317085,-164035,5871,50920,-0.14222024730651858,-0.2308570643579102,9.835205942475893,-0.03792383274078369,0.0013573372879028321,0.011772375183105468,61,fe5bfe00,0.0,0.0,0.0,0.0,0.0,0.0
2026-05-26 15:27:07.699965,1779823627.699965,-2454500,-3990192,163700889,-109496,113838,41353,-0.1469141993713379,-0.2388331077685547,9.79832350532135,-0.025314768127441406,0.0263186104888916,0.009560546562194825,61,fe5bfe00,0.0,0.0,0.0,0.0,0.0,0.0
2026-05-26 15:27:07.701028,1779823627.701028,-2454500,-3990192,163700889,-109496,113838,41353,-0.1469141993713379,-0.2388331077685547,9.79832350532135,-0.025314768127441406,0.0263186104888916,0.009560546562194825,61,fe5bfe00,0.0,0.0,0.0,0.0,0.0,0.0
2026-05-26 15:27:07.701702,1779823627.701702,-2529966,-3951568,164166666,-50750,100273,6160,-0.1514312199334717,-0.23652126664550785,9.826202606987916,-0.011733072280883789,0.023182470085144045,0.0014241522216796876,61,fe5bfe00,0.0,0.0,0.0,0.0,0.0,0.0
2026-05-26 15:27:07.702819,1779823627.702819,-2529966,-3951568,164166666,-50750,100273,6160,-0.1514312199334717,-0.23652126664550785,9.826202606987916,-0.011733072280883789,0.023182470085144045,0.0014241522216796876,61,fe5bfe00,0.0,0.0,0.0,0.0,0.0,0.0
2026-05-26 15:27:07.703524,1779823627.703524,-2488780,-3820238,164653645,-67065,91946,9440,-0.14896603019409183,-0.22866050404479984,9.855350755244448,-0.015504994926452636,0.02125732145690918,0.002182467041015625,61,fe5bfe00,0.0,0.0,0.0,0.0,0.0,0.0
2026-05-26 15:27:07.704685,1779823627.704685,-2488780,-3820238,164653645,-67065,91946,9440,-0.14896603019409183,-0.22866050404479984,9.855350755244448,-0.015504994926452636,0.02125732145690918,0.002182467041015625,61,fe5bfe00,0.0,0.0,0.0,0.0,0.0,0.0
2026-05-26 15:27:07.705374,1779823627.705374,-2533065,-3706575,164299819,-80322,54772,18344,-0.15161671070709232,-0.22185720046234134,9.834172485329287,-0.01856992771911621,0.012662932708740235,0.004241014343261719,61,fe5bfe00,0.0,0.0,0.0,0.0,0.0,0.0
2026-05-26 15:27:07.706520,1779823627.706520,-2533065,-3706575,164299819,-80322,54772,18344,-0.15161671070709232,-0.22185720046234134,9.834172485329287,-0.01856992771911621,0.012662932708740235,0.004241014343261719,61,fe5bfe00,0.0,0.0,0.0,0.0,0.0,0.0
2026-05-26 15:27:07.707189,1779823627.707189,-2392308,-3927090,164094160,-94942,-2169,12477,-0.143191694630127,-0.23505613493957522,9.821862757348635,-0.021949977310180665,-0.0005014587936401368,0.0028846018295288086,61,fe5afe00,0.0,0.0,0.0,0.0,0.0,0.0
2026-05-26 15:27:07.708345,1779823627.708345,-2392308,-3927090,164094160,-94942,-2169,12477,-0.143191694630127,-0.23505613493957522,9.821862757348635,-0.021949977310180665,-0.0005014587936401368,0.0028846018295288086,61,fe5afe00,0.0,0.0,0.0,0.0,0.0,0.0
2026-05-26 15:27:07.709013,1779823627.709013,-2376502,-3990256,163966070,-71612,94146,23045,-0.14224562584411624,-0.23883693849121096,9.814195925082398,-0.016556231964111327,0.02176594725036621,0.005327855186462402,61,fe5afe00,0.0,0.0,0.0,0.0,0.0,0.0
2026-05-26 15:27:07.710152,1779823627.710152,-2376502,-3990256,163966070,-71612,94146,23045,-0.14224562584411624,-0.23883693849121096,9.814195925082398,-0.016556231964111327,0.02176594725036621,0.005327855186462402,61,fe5afe00,0.0,0.0,0.0,0.0,0.0,0.0
2026-05-26 15:27:07.710797,1779823627.710797,-2707197,-3960426,164233864,-56067,103315,34137,-0.1620393887942505,-0.23705146260314944,9.830224746066897,-0.012962328346252442,0.02388576084136963,0.007892253959655761,61,fe5bfe00,0.0,0.0,0.0,0.0,0.0,0.0
2026-05-26 15:27:07.711964,1779823627.711964,-2707197,-3960426,164233864,-56067,103315,34137,-0.1620393887942505,-0.23705146260314944,9.830224746066897,-0.012962328346252442,0.02388576084136963,0.007892253959655761,61,fe5bfe00,0.0,0.0,0.0,0.0,0.0,0.0
2026-05-26 15:27:07.712621,1779823627.712621,-2758120,-3954580,164827091,-57605,11583,61149,-0.16508738707275392,-0.2367015500305176,9.865732372773135,-0.013317904014587403,0.0026779148025512694,0.014137253929138184,61,fe5bfe00,0.0,0.0,0.0,0.0,0.0,0.0
2026-05-26 15:27:07.713770,1779823627.713770,-2758120,-3954580,164827091,-57605,11583,61149,-0.16508738707275392,-0.2367015500305176,9.865732372773135,-0.013317904014587403,0.0026779148025512694,0.014137253929138184,61,fe5bfe00,0.0,0.0,0.0,0.0,0.0,0.0
2026-05-26 15:27:07.714426,1779823627.714426,-2559077,-4104054,164323795,-48172,-52779,79108,-0.15317366004669192,-0.2456483225042725,9.835607569804385,-0.01113705532836914,-0.012202163978576661,0.01828925875854492,61,fe5bfe00,0.0,0.0,0.0,0.0,0.0,0.0
2026-05-26 15:27:07.715566,1779823627.715566,-2559077,-4104054,164323795,-48172,-52779,79108,-0.15317366004669192,-0.2456483225042725,9.835607569804385,-0.01113705532836914,-0.012202163978576661,0.01828925875854492,61,fe5bfe00,0.0,0.0,0.0,0.0,0.0,0.0
2026-05-26 15:27:07.716215,1779823627.716215,-2419063,-4229112,163851494,-2028,-36008,63776,-0.144793116265564,-0.253133674284668,9.807337973847048,-0.00046886050415039063,-0.008324817077636718,0.014744599365234375,61,fe5afe00,0.0,0.0,0.0,0.0,0.0,0.0
2026-05-26 15:27:07.717429,1779823627.717429,-2419063,-4229112,163851494,-2028,-36008,63776,-0.144793116265564,-0.253133674284668,9.807337973847048,-0.00046886050415039063,-0.008324817077636718,0.014744599365234375,61,fe5afe00,0.0,0.0,0.0,0.0,0.0,0.0
2026-05-26 15:27:07.718172,1779823627.718172,-2364276,-4103281,164366284,43666,21442,42983,-0.14151383810668947,-0.24560205455718997,9.838150750662843,0.010095297225952149,0.004957251937866211,0.009937392036437988,61,fe5afe00,0.0,0.0,0.0,0.0,0.0,0.0
2026-05-26 15:27:07.719685,1779823627.719685,-2364276,-4103281,164366284,43666,21442,42983,-0.14151383810668947,-0.24560205455718997,9.838150750662843,0.010095297225952149,0.004957251937866211,0.009937392036437988,61,fe5afe00,0.0,0.0,0.0,0.0,0.0,0.0
2026-05-26 15:27:07.720487,1779823627.720487,-2457064,-3917485,164604295,9231,30176,58888,-0.14706766769775392,-0.2344812272659302,9.852396908946229,0.002134147590637207,0.006976496337890625,0.013614525329589844,61,fe5afe00,0.0,0.0,0.0,0.0,0.0,0.0
2026-05-26 15:27:07.721943,1779823627.721943,-2457064,-3917485,164604295,9231,30176,58888,-0.14706766769775392,-0.2344812272659302,9.852396908946229,0.002134147590637207,0.006976496337890625,0.013614525329589844,61,fe5afe00,0.0,0.0,0.0,0.0,0.0,0.0
2026-05-26 15:27:07.722777,1779823627.722777,-2594666,-3956242,164262699,48164,12087,69345,-0.15530384111877443,-0.2368010291094971,9.83195066618866,0.011135205780029297,0.0027944363479614257,0.016032116203308105,61,fe5afe00,0.0,0.0,0.0,0.0,0.0,0.0
2026-05-26 15:27:07.724095,1779823627.724095,-2594666,-3956242,164262699,48164,12087,69345,-0.15530384111877443,-0.2368010291094971,9.83195066618866,0.011135205780029297,0.0027944363479614257,0.016032116203308105,61,fe5afe00,0.0,0.0,0.0,0.0,0.0,0.0
2026-05-26 15:27:07.724911,1779823627.724911,-2507241,-3864375,164056917,57366,-35671,116353,-0.15007101411529544,-0.23130232601165776,9.819633576037905,0.013262648757934571,-0.008246904853820802,0.02690006224822998,61,fe5afe00,0.0,0.0,0.0,0.0,0.0,0.0
2026-05-26 15:27:07.726283,1779823627.726283,-2507241,-3864375,164056917,57366,-35671,116353,-0.15007101411529544,-0.23130232601165776,9.819633576037905,0.013262648757934571,-0.008246904853820802,0.02690006224822998,61,fe5afe00,0.0,0.0,0.0,0.0,0.0,0.0
2026-05-26 15:27:07.727063,1779823627.727063,-2708017,-3672126,164077144,145819,101758,138279,-0.1620884699282837,-0.21979525413757328,9.820844263962403,0.03371241117095947,0.02352579249572754,0.03196921186065674,61,fe5afe00,0.0,0.0,0.0,0.0,0.0,0.0
2026-05-26 15:27:07.728464,1779823627.728464,-2708017,-3672126,164077144,145819,101758,138279,-0.1620884699282837,-0.21979525413757328,9.820844263962403,0.03371241117095947,0.02352579249572754,0.03196921186065674,61,fe5afe00,0.0,0.0,0.0,0.0,0.0,0.0
2026-05-26 15:27:07.729292,1779823627.729292,-3135576,-3547470,164881280,152103,20283,149461,-0.18768003161865238,-0.21233396408386235,9.868975857617189,0.03516523139190674,0.004689298622131348,0.03455441805267334,61,fe5afe00,0.0,0.0,0.0,0.0,0.0,0.0
2026-05-26 15:27:07.730691,1779823627.730691,-3135576,-3547470,164881280,152103,20283,149461,-0.18768003161865238,-0.21233396408386235,9.868975857617189,0.03516523139190674,0.004689298622131348,0.03455441805267334,61,fe5afe00,0.0,0.0,0.0,0.0,0.0,0.0
2026-05-26 15:27:07.731533,1779823627.731533,-2965190,-3719562,164969535,57286,-116785,137202,-0.1774815705169678,-0.22263453788635257,9.874258364305117,0.013244153274536133,-0.026999937858581544,0.031720216415405275,61,fe5afe00,0.0,0.0,0.0,0.0,0.0,0.0
2026-05-26 15:27:07.733134,1779823627.733134,-2965190,-3719562,164969535,57286,-116785,137202,-0.1774815705169678,-0.22263453788635257,9.874258364305117,0.013244153274536133,-0.026999937858581544,0.031720216415405275,61,fe5afe00,0.0,0.0,0.0,0.0,0.0,0.0
2026-05-26 15:27:07.734006,1779823627.734006,-2586877,-4003614,163783676,65040,-86065,136911,-0.1548376302005005,-0.23963648213562014,9.803278724642336,0.015036828002929688,-0.019897672233581545,0.031652939094543454,61,fe59fe00,0.0,0.0,0.0,0.0,0.0,0.0
2026-05-26 15:27:07.735754,1779823627.735754,-2586877,-4003614,163783676,65040,-86065,136911,-0.1548376302005005,-0.23963648213562014,9.803278724642336,0.015036828002929688,-0.019897672233581545,0.031652939094543454,61,fe59fe00,0.0,0.0,0.0,0.0,0.0,0.0
2026-05-26 15:27:07.736678,1779823627.736678,-2334981,-4038588,163641896,94207,-26959,141285,-0.13976038466583254,-0.24172985235717778,9.79479247685791,0.021780050056457518,-0.006232746711730957,0.032664179649353024,61,fe5afe00,0.0,0.0,0.0,0.0,0.0,0.0
2026-05-26 15:27:07.738344,1779823627.738344,-2334981,-4038588,163641896,94207,-26959,141285,-0.13976038466583254,-0.24172985235717778,9.79479247685791,0.021780050056457518,-0.006232746711730957,0.032664179649353024,61,fe5afe00,0.0,0.0,0.0,0.0,0.0,0.0
2026-05-26 15:27:07.739961,1779823627.739961,-2334981,-4038588,163641896,94207,-26959,141285,-0.13976038466583254,-0.24172985235717778,9.79479247685791,0.021780050056457518,-0.006232746711730957,0.032664179649353024,61,fe5afe00,0.0,0.0,0.0,0.0,0.0,0.0
2026-05-26 15:27:07.740922,1779823627.740922,-2398332,-3815114,164732843,90739,58065,129036,-0.1435522614001465,-0.22835380681213382,9.860091154821474,0.020978270851135253,0.013424253044128419,0.029832289947509767,61,fe5afe00,0.0,0.0,0.0,0.0,0.0,0.0
2026-05-26 15:27:07.741819,1779823627.741819,-2672600,-3532064,165110647,-196,-16846,111565,-0.15996858392333987,-0.21141183731445315,9.882704628921815,-4.5313934326171876e-05,-0.0038946864166259764,0.025793107566833496,61,fe5afe00,0.0,0.0,0.0,0.0,0.0,0.0
2026-05-26 15:27:07.743348,1779823627.743348,-2672600,-3532064,165110647,-196,-16846,111565,-0.15996858392333987,-0.21141183731445315,9.882704628921815,-4.5313934326171876e-05,-0.0038946864166259764,0.025793107566833496,61,fe5afe00,0.0,0.0,0.0,0.0,0.0,0.0
2026-05-26 15:27:07.744217,1779823627.744217,-2686246,-3470178,164447776,8349,-131210,93975,-0.16078536581970218,-0.20770764821594243,9.84302845770508,0.0019302348861694337,-0.030334904708862305,0.02172641315460205,61,fe5afe00,0.0,0.0,0.0,0.0,0.0,0.0
2026-05-26 15:27:07.745772,1779823627.745772,-2686246,-3470178,164447776,8349,-131210,93975,-0.16078536581970218,-0.20770764821594243,9.84302845770508,0.0019302348861694337,-0.030334904708862305,0.02172641315460205,61,fe5afe00,0.0,0.0,0.0,0.0,0.0,0.0
2026-05-26 15:27:07.746646,1779823627.746646,-2376957,-3577327,163597532,58759,-64197,82896,-0.1422728598880005,-0.21412105605804446,9.792137067796633,0.013584701362609863,-0.014841931846618653,0.019165019897460937,61,fe5afe00,0.0,0.0,0.0,0.0,0.0,0.0
2026-05-26 15:27:07.748234,1779823627.748234,-2376957,-3577327,163597532,58759,-64197,82896,-0.1422728598880005,-0.21412105605804446,9.792137067796633,0.013584701362609863,-0.014841931846618653,0.019165019897460937,61,fe5afe00,0.0,0.0,0.0,0.0,0.0,0.0
2026-05-26 15:27:07.749151,1779823627.749151,-2409898,-3462075,163656465,111647,109238,89092,-0.14424454481018067,-0.20722264281463626,9.795664504957582,0.025812065437316893,0.025255120193481445,0.02059749508666992,61,fe5afe00,0.0,0.0,0.0,0.0,0.0,0.0
2026-05-26 15:27:07.750724,1779823627.750724,-2409898,-3462075,163656465,111647,109238,89092,-0.14424454481018067,-0.20722264281463626,9.795664504957582,0.025812065437316893,0.025255120193481445,0.02059749508666992,61,fe5afe00,0.0,0.0,0.0,0.0,0.0,0.0
2026-05-26 15:27:07.751573,1779823627.751573,-2627918,-3442520,164810851,47055,64493,102492,-0.15729414095886232,-0.20605217747802737,9.86476032689911,0.010878812141418457,0.01491036513519287,0.023695488555908202,61,fe5afe00,0.0,0.0,0.0,0.0,0.0,0.0
2026-05-26 15:27:07.753227,1779823627.753227,-2627918,-3442520,164810851,47055,64493,102492,-0.15729414095886232,-0.20605217747802737,9.86476032689911,0.010878812141418457,0.01491036513519287,0.023695488555908202,61,fe5afe00,0.0,0.0,0.0,0.0,0.0,0.0
2026-05-26 15:27:07.754107,1779823627.754107,-2737108,-3500346,164890679,-21356,-21736,117032,-0.16382971294067386,-0.20951335510803226,9.869538435152284,-0.00493736929321289,-0.005025222839355469,0.02705704266357422,61,fe59fe00,0.0,0.0,0.0,0.0,0.0,0.0
2026-05-26 15:27:07.755813,1779823627.755813,-2737108,-3500346,164890679,-21356,-21736,117032,-0.16382971294067386,-0.20951335510803226,9.869538435152284,-0.00493736929321289,-0.005025222839355469,0.02705704266357422,61,fe59fe00,0.0,0.0,0.0,0.0,0.0,0.0
2026-05-26 15:27:07.756713,1779823627.756713,-2730163,-3670548,163941576,25046,-81017,112688,-0.16341401967742922,-0.2197008028820801,9.812729835695801,0.00579047346496582,-0.018730607231140138,0.02605273791503906,61,fe59fe00,0.0,0.0,0.0,0.0,0.0,0.0
2026-05-26 15:27:07.758333,1779823627.758333,-2730163,-3670548,163941576,25046,-81017,112688,-0.16341401967742922,-0.2197008028820801,9.812729835695801,0.00579047346496582,-0.018730607231140138,0.02605273791503906,61,fe59fe00,0.0,0.0,0.0,0.0,0.0,0.0
2026-05-26 15:27:07.759290,1779823627.759290,-2601206,-3672385,164021327,110748,-45075,105128,-0.15569529309021,-0.21981075659332278,9.81750333511078,0.025604222442626952,-0.010421048927307129,0.02430491473388672,61,fe59fe00,0.0,0.0,0.0,0.0,0.0,0.0
2026-05-26 15:27:07.760925,1779823627.760925,-2601206,-3672385,164021327,110748,-45075,105128,-0.15569529309021,-0.21981075659332278,9.81750333511078,0.025604222442626952,-0.010421048927307129,0.02430491473388672,61,fe59fe00,0.0,0.0,0.0,0.0,0.0,0.0
2026-05-26 15:27:07.761810,1779823627.761810,-2300857,-3632353,164433716,84825,-4904,84898,-0.13771789122955325,-0.2174146395718384,9.842186895821534,0.01961099224090576,-0.0011337731323242187,0.019627869369506837,61,fe59fe00,0.0,0.0,0.0,0.0,0.0,0.0
2026-05-26 15:27:07.763443,1779823627.763443,-2300857,-3632353,164433716,84825,-4904,84898,-0.13771789122955325,-0.2174146395718384,9.842186895821534,0.01961099224090576,-0.0011337731323242187,0.019627869369506837,61,fe59fe00,0.0,0.0,0.0,0.0,0.0,0.0
2026-05-26 15:27:07.764344,1779823627.764344,-2266117,-3585787,164219314,-1400,33052,57357,-0.13563852708770754,-0.2146274297091675,9.829353855213014,-0.00032367095947265624,0.007641408966064453,0.013260568016052247,61,fe59fe00,0.0,0.0,0.0,0.0,0.0,0.0
2026-05-26 15:27:07.765863,1779823627.765863,-2266117,-3585787,164219314,-1400,33052,57357,-0.13563852708770754,-0.2146274297091675,9.829353855213014,-0.00032367095947265624,0.007641408966064453,0.013260568016052247,61,fe59fe00,0.0,0.0,0.0,0.0,0.0,0.0
2026-05-26 15:27:07.766778,1779823627.766778,-2240564,-3520922,164051723,-6928,28403,35945,-0.13410905121215821,-0.21074493244201664,9.819322688952333,-0.0016017088623046876,0.006566590187072754,0.008310251884460449,61,fe59fe00,0.0,0.0,0.0,0.0,0.0,0.0
2026-05-26 15:27:07.768319,1779823627.768319,-2240564,-3520922,164051723,-6928,28403,35945,-0.13410905121215821,-0.21074493244201664,9.819322688952333,-0.0016017088623046876,0.006566590187072754,0.008310251884460449,61,fe59fe00,0.0,0.0,0.0,0.0,0.0,0.0
2026-05-26 15:27:07.769245,1779823627.769245,-2625448,-3306142,163941258,1592,128759,23845,-0.1571462990063477,-0.19788926662780765,9.812710801792605,0.00036806011962890625,0.029768249336242676,0.005512810020446777,61,fe58fe00,0.0,0.0,0.0,0.0,0.0,0.0
2026-05-26 15:27:07.771352,1779823627.771352,-2625448,-3306142,163941258,1592,128759,23845,-0.1571462990063477,-0.19788926662780765,9.812710801792605,0.00036806011962890625,0.029768249336242676,0.005512810020446777,61,fe58fe00,0.0,0.0,0.0,0.0,0.0,0.0
2026-05-26 15:27:07.773094,1779823627.773094,-3004399,-3235502,164541779,69528,76328,25529,-0.17982842683929445,-0.1936611064959717,9.848655011171571,0.016074424621582033,0.01764654071044922,0.0059021399459838865,61,fe58fe00,0.0,0.0,0.0,0.0,0.0,0.0
2026-05-26 15:27:07.775895,1779823627.775895,-3004399,-3235502,164541779,69528,76328,25529,-0.17982842683929445,-0.1936611064959717,9.848655011171571,0.016074424621582033,0.01764654071044922,0.0059021399459838865,61,fe58fe00,0.0,0.0,0.0,0.0,0.0,0.0
2026-05-26 15:27:07.777483,1779823627.777483,-2849357,-3324677,164635048,-43454,-59942,42593,-0.17054838149444582,-0.19899867982208255,9.854237631037599,-0.010046284194946289,-0.013858203323364258,0.009847226554870605,61,fe58fe00,0.0,0.0,0.0,0.0,0.0,0.0
2026-05-26 15:27:07.780201,1779823627.780201,-2849357,-3324677,164635048,-43454,-59942,42593,-0.17054838149444582,-0.19899867982208255,9.854237631037599,-0.010046284194946289,-0.013858203323364258,0.009847226554870605,61,fe58fe00,0.0,0.0,0.0,0.0,0.0,0.0
2026-05-26 15:27:07.781612,1779823627.781612,-2340825,-3756324,163671113,272,-15612,53165,-0.14011017752838137,-0.22483492892211918,9.796541261605531,6.28846435546875e-05,-0.003609393585205078,0.012291404685974122,61,fe58fe00,0.0,0.0,0.0,0.0,0.0,0.0
2026-05-26 15:27:07.783923,1779823627.783923,-2340825,-3756324,163671113,272,-15612,53165,-0.14011017752838137,-0.22483492892211918,9.796541261605531,6.28846435546875e-05,-0.003609393585205078,0.012291404685974122,61,fe58fe00,0.0,0.0,0.0,0.0,0.0,0.0
2026-05-26 15:27:07.784996,1779823627.784996,-2475605,-3943754,163513382,5764,108158,59975,-0.14817744002227784,-0.23605355935119632,9.787100266054079,0.001332599578857422,0.025005431167602538,0.013865832710266113,61,fe58fe00,0.0,0.0,0.0,0.0,0.0,0.0
2026-05-26 15:27:07.786954,1779823627.786954,-2475605,-3943754,163513382,5764,108158,59975,-0.14817744002227784,-0.23605355935119632,9.787100266054079,0.001332599578857422,0.025005431167602538,0.013865832710266113,61,fe58fe00,0.0,0.0,0.0,0.0,0.0,0.0
2026-05-26 15:27:07.788039,1779823627.788039,-2668964,-3930769,164813863,42795,101227,56435,-0.15975095099243167,-0.2352763416372681,9.86494061028412,0.00989392765045166,0.02340302872467041,0.013047407569885254,61,fe59fe00,0.0,0.0,0.0,0.0,0.0,0.0
2026-05-26 15:27:07.789841,1779823627.789841,-2668964,-3930769,164813863,42795,101227,56435,-0.15975095099243167,-0.2352763416372681,9.86494061028412,0.00989392765045166,0.02340302872467041,0.013047407569885254,61,fe59fe00,0.0,0.0,0.0,0.0,0.0,0.0
2026-05-26 15:27:07.790835,1779823627.790835,-3014404,-3801262,164997755,-12896,31247,51915,-0.18042727652954105,-0.2275246947772217,9.875947473576357,-0.002981471923828125,0.007224104621887207,0.012002412757873535,61,fe59fe00,0.0,0.0,0.0,0.0,0.0,0.0
2026-05-26 15:27:07.792680,1779823627.792680,-3014404,-3801262,164997755,-12896,31247,51915,-0.18042727652954105,-0.2275246947772217,9.875947473576357,-0.002981471923828125,0.007224104621887207,0.012002412757873535,61,fe59fe00,0.0,0.0,0.0,0.0,0.0,0.0
2026-05-26 15:27:07.793682,1779823627.793682,-2939106,-3804801,164481296,20733,-111716,18266,-0.1759203116143799,-0.22773652176910403,9.84503479869629,0.004793335716247559,-0.025828017791748047,0.004222981246948242,61,fe59fe00,0.0,0.0,0.0,0.0,0.0,0.0
2026-05-26 15:27:07.795392,1779823627.795392,-2939106,-3804801,164481296,20733,-111716,18266,-0.1759203116143799,-0.22773652176910403,9.84503479869629,0.004793335716247559,-0.025828017791748047,0.004222981246948242,61,fe59fe00,0.0,0.0,0.0,0.0,0.0,0.0
2026-05-26 15:27:07.796225,1779823627.796225,-2521124,-3873032,163871535,41900,-90961,-10569,-0.15090198165649416,-0.23182049110595707,9.808537528733828,0.00968700942993164,-0.02102959581756592,-0.002443484550476074,61,fe58fe00,0.0,0.0,0.0,0.0,0.0,0.0
2026-05-26 15:27:07.797611,1779823627.797611,-2521124,-3873032,163871535,41900,-90961,-10569,-0.15090198165649416,-0.23182049110595707,9.808537528733828,0.00968700942993164,-0.02102959581756592,-0.002443484550476074,61,fe58fe00,0.0,0.0,0.0,0.0,0.0,0.0
2026-05-26 15:27:07.798371,1779823627.798371,-2322632,-3767111,163844365,48944,82673,-22174,-0.1390212347583008,-0.2254805852548218,9.806911267256165,0.011315536743164063,0.019113463737487794,-0.005126485610961914,61,fe58fe00,0.0,0.0,0.0,0.0,0.0,0.0
2026-05-26 15:27:07.799739,1779823627.799739,-2322632,-3767111,163844365,48944,82673,-22174,-0.1390212347583008,-0.2254805852548218,9.806911267256165,0.011315536743164063,0.019113463737487794,-0.005126485610961914,61,fe58fe00,0.0,0.0,0.0,0.0,0.0,0.0
2026-05-26 15:27:07.800513,1779823627.800513,-2546734,-3578414,164439570,-58464,33390,6121,-0.1524348692694092,-0.21418611848815922,9.842537287234498,-0.013516499267578126,0.007719552383422852,0.0014151356735229493,61,fe58fe00,0.0,0.0,0.0,0.0,0.0,0.0
2026-05-26 15:27:07.801815,1779823627.801815,-2546734,-3578414,164439570,-58464,33390,6121,-0.1524348692694092,-0.21418611848815922,9.842537287234498,-0.013516499267578126,0.007719552383422852,0.0014151356735229493,61,fe58fe00,0.0,0.0,0.0,0.0,0.0,0.0
2026-05-26 15:27:07.802555,1779823627.802555,-2533476,-3562030,164669935,-95826,25391,57551,-0.1516413111291504,-0.2132054534881592,9.856325793870546,-0.0221543524017334,0.0058702352371215825,0.013305419563293458,61,fe58fe00,0.0,0.0,0.0,0.0,0.0,0.0
2026-05-26 15:27:07.803978,1779823627.803978,-2533476,-3562030,164669935,-95826,25391,57551,-0.1516413111291504,-0.2132054534881592,9.856325793870546,-0.0221543524017334,0.0058702352371215825,0.013305419563293458,61,fe58fe00,0.0,0.0,0.0,0.0,0.0,0.0
2026-05-26 15:27:07.804748,1779823627.804748,-2738548,-3650924,164198683,-26566,-23481,91873,-0.16391590420043947,-0.21852620754760746,9.828118985851747,-0.006141887649536133,-0.005428655570983887,0.021240444328308107,61,fe58fe00,0.0,0.0,0.0,0.0,0.0,0.0
2026-05-26 15:27:07.805964,1779823627.805964,-2738548,-3650924,164198683,-26566,-23481,91873,-0.16391590420043947,-0.21852620754760746,9.828118985851747,-0.006141887649536133,-0.005428655570983887,0.021240444328308107,61,fe58fe00,0.0,0.0,0.0,0.0,0.0,0.0
2026-05-26 15:27:07.806666,1779823627.806666,-2564723,-3847028,164520037,48535,-66668,96345,-0.15351160161102298,-0.2302640206066895,9.847353642859193,0.01122097858428955,-0.01541321109008789,0.022274341850280762,61,fe58fe00,0.0,0.0,0.0,0.0,0.0,0.0
2026-05-26 15:27:07.808025,1779823627.808025,-2564723,-3847028,164520037,48535,-66668,96345,-0.15351160161102298,-0.2302640206066895,9.847353642859193,0.01122097858428955,-0.01541321109008789,0.022274341850280762,61,fe58fe00,0.0,0.0,0.0,0.0,0.0,0.0
2026-05-26 15:27:07.808678,1779823627.808678,-2203181,-3985492,164437552,-38570,-81555,91804,-0.1318714901956177,-0.23855178907348637,9.842416499760743,-0.00891713493347168,-0.018854989356994627,0.021224491973876953,61,fe58fe00,0.0,0.0,0.0,0.0,0.0,0.0
2026-05-26 15:27:07.810027,1779823627.810027,-2203181,-3985492,164437552,-38570,-81555,91804,-0.1318714901956177,-0.23855178907348637,9.842416499760743,-0.00891713493347168,-0.018854989356994627,0.021224491973876953,61,fe58fe00,0.0,0.0,0.0,0.0,0.0,0.0
2026-05-26 15:27:07.810706,1779823627.810706,-2050301,-4056255,163849719,-61424,9834,99347,-0.1227208514505005,-0.24278731137542728,9.807231731148377,-0.014200832153320313,0.00227355729675293,0.02296838486480713,61,fe58fe00,0.0,0.0,0.0,0.0,0.0,0.0
2026-05-26 15:27:07.811966,1779823627.811966,-2050301,-4056255,163849719,-61424,9834,99347,-0.1227208514505005,-0.24278731137542728,9.807231731148377,-0.014200832153320313,0.00227355729675293,0.02296838486480713,61,fe58fe00,0.0,0.0,0.0,0.0,0.0,0.0
2026-05-26 15:27:07.812649,1779823627.812649,-2205012,-4043697,163954538,-45179,70505,65383,-0.13198108477661136,-0.24203565176422123,9.813505676743775,-0.010445093055725097,0.01630030071258545,0.015116127388000488,61,fe58fe00,0.0,0.0,0.0,0.0,0.0,0.0
2026-05-26 15:27:07.813982,1779823627.813982,-2205012,-4043697,163954538,-45179,70505,65383,-0.13198108477661136,-0.24203565176422123,9.813505676743775,-0.010445093055725097,0.01630030071258545,0.015116127388000488,61,fe58fe00,0.0,0.0,0.0,0.0,0.0,0.0
2026-05-26 15:27:07.814688,1779823627.814688,-2608489,-3839642,164512480,-18809,133055,72815,-0.15613121735748292,-0.22982193127014164,9.846901318310548,-0.004348519340515136,0.03076145679473877,0.01683435779571533,61,fe58fe00,0.0,0.0,0.0,0.0,0.0,0.0
2026-05-26 15:27:07.815894,1779823627.815894,-2608489,-3839642,164512480,-18809,133055,72815,-0.15613121735748292,-0.22982193127014164,9.846901318310548,-0.004348519340515136,0.03076145679473877,0.01683435779571533,61,fe58fe00,0.0,0.0,0.0,0.0,0.0,0.0
2026-05-26 15:27:07.816573,1779823627.816573,-2948730,-3613372,164800804,-26353,37017,52939,-0.17649635653381351,-0.21627853102905276,9.86415896329712,-0.006092643424987793,0.008558091361999512,0.012239154945373535,61,fe58fe00,0.0,0.0,0.0,0.0,0.0,0.0
2026-05-26 15:27:07.817772,1779823627.817772,-2948730,-3613372,164800804,-26353,37017,52939,-0.17649635653381351,-0.21627853102905276,9.86415896329712,-0.006092643424987793,0.008558091361999512,0.012239154945373535,61,fe58fe00,0.0,0.0,0.0,0.0,0.0,0.0
2026-05-26 15:27:07.819020,1779823627.819020,-2948730,-3613372,164800804,-26353,37017,52939,-0.17649635653381351,-0.21627853102905276,9.86415896329712,-0.006092643424987793,0.008558091361999512,0.012239154945373535,61,fe58fe00,0.0,0.0,0.0,0.0,0.0,0.0
2026-05-26 15:27:07.819768,1779823627.819768,-2728589,-3477196,164515044,-79039,-93728,92707,-0.16331980784210207,-0.20812771089721682,9.847054786636964,-0.01827330640411377,-0.021669308349609374,0.021433259742736816,61,fe57fe00,0.0,0.0,0.0,0.0,0.0,0.0
2026-05-26 15:27:07.822815,1779823627.822815,-2105086,-3850194,163671751,-4694,-76107,125736,-0.126000009899292,-0.23045352166809085,9.79657944912201,-0.0010852224884033202,-0.017595446937561036,0.029069351257324218,61,fe57fe00,0.0,0.0,0.0,0.0,0.0,0.0
2026-05-26 15:27:07.829794,1779823627.829794,-2105086,-3850194,163671751,-4694,-76107,125736,-0.126000009899292,-0.23045352166809085,9.79657944912201,-0.0010852224884033202,-0.017595446937561036,0.029069351257324218,61,fe57fe00,0.0,0.0,0.0,0.0,0.0,0.0
2026-05-26 15:27:07.832770,1779823627.832770,-2079056,-4085270,163566137,39542,93148,162323,-0.12444198316894534,-0.24452400540466313,9.790257918768617,0.009141855056762696,0.021535216094970704,0.03752802939605713,61,fe57fe00,0.0,0.0,0.0,0.0,0.0,0.0
2026-05-26 15:27:07.834264,1779823627.834264,-2079056,-4085270,163566137,39542,93148,162323,-0.12444198316894534,-0.24452400540466313,9.790257918768617,0.009141855056762696,0.021535216094970704,0.03752802939605713,61,fe57fe00,0.0,0.0,0.0,0.0,0.0,0.0
2026-05-26 15:27:07.921510,1779823627.921510,-2265794,-4150892,164621957,37515,65873,181390,-0.13561919390930177,-0.24845181293823246,9.853454068689272,0.008673225746154785,0.015229412223815918,0.04193619667053223,61,fe57fe00,0.0,0.0,0.0,0.0,0.0,0.0
2026-05-26 15:27:07.923328,1779823627.923328,-2265794,-4150892,164621957,37515,65873,181390,-0.13561919390930177,-0.24845181293823246,9.853454068689272,0.008673225746154785,0.015229412223815918,0.04193619667053223,61,fe57fe00,0.0,0.0,0.0,0.0,0.0,0.0
2026-05-26 15:27:07.924709,1779823627.924709,-2725747,-4008304,164853683,-5610,109076,160119,-0.16314969981414798,-0.23991720228027347,9.867324038036806,-0.0012969957733154297,0.02521766683959961,0.03701847882843018,61,fe57fe00,0.0,0.0,0.0,0.0,0.0,0.0
2026-05-26 15:27:07.926102,1779823627.926102,-2725747,-4008304,164853683,-5610,109076,160119,-0.16314969981414798,-0.23991720228027347,9.867324038036806,-0.0012969957733154297,0.02521766683959961,0.03701847882843018,61,fe57fe00,0.0,0.0,0.0,0.0,0.0,0.0
2026-05-26 15:27:07.926919,1779823627.926919,-2931756,-3974129,164526393,87568,-32238,94887,-0.1754803770593262,-0.23787165623687748,9.847734081502992,0.020245156127929688,-0.007453217422485351,0.021937261665344238,61,fe57fe00,0.0,0.0,0.0,0.0,0.0,0.0
2026-05-26 15:27:07.928405,1779823627.928405,-2931756,-3974129,164526393,87568,-32238,94887,-0.1754803770593262,-0.23787165623687748,9.847734081502992,0.020245156127929688,-0.007453217422485351,0.021937261665344238,61,fe57fe00,0.0,0.0,0.0,0.0,0.0,0.0
2026-05-26 15:27:07.929302,1779823627.929302,-2635289,-4020125,164183365,140350,-34411,50342,-0.15773533246978763,-0.24062474872589115,9.82720212632599,0.03244801368713379,-0.00795560099029541,0.011638745315551757,61,fe57fe00,0.0,0.0,0.0,0.0,0.0,0.0
2026-05-26 15:27:07.930804,1779823627.930804,-2635289,-4020125,164183365,140350,-34411,50342,-0.15773533246978763,-0.24062474872589115,9.82720212632599,0.03244801368713379,-0.00795560099029541,0.011638745315551757,61,fe57fe00,0.0,0.0,0.0,0.0,0.0,0.0
2026-05-26 15:27:07.931587,1779823627.931587,-2368544,-3935128,163780693,171179,25562,14440,-0.14176929942382815,-0.23553724976318363,9.80310017705353,0.03957547940826416,0.005909769332885742,0.0033384347534179686,61,fe57fe00,0.0,0.0,0.0,0.0,0.0,0.0
2026-05-26 15:27:07.933265,1779823627.933265,-2368544,-3935128,163780693,171179,25562,14440,-0.14176929942382815,-0.23553724976318363,9.80310017705353,0.03957547940826416,0.005909769332885742,0.0033384347534179686,61,fe57fe00,0.0,0.0,0.0,0.0,0.0,0.0
2026-05-26 15:27:07.934068,1779823627.934068,-2566437,-3644532,163904109,75040,93391,18641,-0.15361419315216066,-0.21814361412231448,9.810487246855775,0.017348763427734375,0.021591396125793458,0.004309678825378418,61,fe57fe00,0.0,0.0,0.0,0.0,0.0,0.0
2026-05-26 15:27:07.935622,1779823627.935622,-2566437,-3644532,163904109,75040,93391,18641,-0.15361419315216066,-0.21814361412231448,9.810487246855775,0.017348763427734375,0.021591396125793458,0.004309678825378418,61,fe57fe00,0.0,0.0,0.0,0.0,0.0,0.0
2026-05-26 15:27:07.936576,1779823627.936576,-2809086,-3322890,164642379,54093,58104,49819,-0.16813795911804202,-0.19889171886291507,9.854676428346863,0.012505952293395996,0.013433269592285156,0.011517831092834472,61,fe57fe00,0.0,0.0,0.0,0.0,0.0,0.0
2026-05-26 15:27:07.938256,1779823627.938256,-2809086,-3322890,164642379,54093,58104,49819,-0.16813795911804202,-0.19889171886291507,9.854676428346863,0.012505952293395996,0.013433269592285156,0.011517831092834472,61,fe57fe00,0.0,0.0,0.0,0.0,0.0,0.0
2026-05-26 15:27:07.939081,1779823627.939081,-3022947,-3302606,164552283,40392,-109,87802,-0.18093861814910892,-0.19767761920104984,9.849283728527528,0.009338369567871093,-2.5200096130371095e-05,0.020299255416870117,61,fe57fe00,0.0,0.0,0.0,0.0,0.0,0.0
2026-05-26 15:27:07.940686,1779823627.940686,-3022947,-3302606,164552283,40392,-109,87802,-0.18093861814910892,-0.19767761920104984,9.849283728527528,0.009338369567871093,-2.5200096130371095e-05,0.020299255416870117,61,fe57fe00,0.0,0.0,0.0,0.0,0.0,0.0
2026-05-26 15:27:07.941671,1779823627.941671,-2899166,-3466851,164355866,74913,-99002,109361,-0.17352970125671388,-0.20750851049285893,9.837527180840455,0.017319401847839356,-0.022888623092651366,0.025283556999206543,61,fe57fe00,0.0,0.0,0.0,0.0,0.0,0.0
2026-05-26 15:27:07.943477,1779823627.943477,-2899166,-3466851,164355866,74913,-99002,109361,-0.17352970125671388,-0.20750851049285893,9.837527180840455,0.017319401847839356,-0.022888623092651366,0.025283556999206543,61,fe57fe00,0.0,0.0,0.0,0.0,0.0,0.0
2026-05-26 15:27:07.944391,1779823627.944391,-2467314,-3624811,164072239,-24870,-86204,98871,-0.14768118187316898,-0.21696321284881595,9.820550674983828,-0.005749783401489258,-0.019929808135986327,0.022858336738586425,61,fe56fe00,0.0,0.0,0.0,0.0,0.0,0.0
2026-05-26 15:27:07.945919,1779823627.945919,-2467314,-3624811,164072239,-24870,-86204,98871,-0.14768118187316898,-0.21696321284881595,9.820550674983828,-0.005749783401489258,-0.019929808135986327,0.022858336738586425,61,fe56fe00,0.0,0.0,0.0,0.0,0.0,0.0
2026-05-26 15:27:07.946800,1779823627.946800,-2331850,-3651096,163778295,-28493,43458,84612,-0.1395729785308838,-0.21853650261474614,9.802956644664002,-0.006587397605895996,0.010047208969116211,0.019561748016357423,61,fe56fe00,0.0,0.0,0.0,0.0,0.0,0.0
2026-05-26 15:27:07.948438,1779823627.948438,-2331850,-3651096,163778295,-28493,43458,84612,-0.1395729785308838,-0.21853650261474614,9.802956644664002,-0.006587397605895996,0.010047208969116211,0.019561748016357423,61,fe56fe00,0.0,0.0,0.0,0.0,0.0,0.0
2026-05-26 15:27:07.949350,1779823627.949350,-2651357,-3759236,164266362,-26001,52695,57395,-0.1586970832766724,-0.22500922680297855,9.83216991520569,-0.006011263298034668,0.012182743721008301,0.013269353370666504,61,fe56fe00,0.0,0.0,0.0,0.0,0.0,0.0
2026-05-26 15:27:07.951220,1779823627.951220,-2651357,-3759236,164266362,-26001,52695,57395,-0.1586970832766724,-0.22500922680297855,9.83216991520569,-0.006011263298034668,0.012182743721008301,0.013269353370666504,61,fe56fe00,0.0,0.0,0.0,0.0,0.0,0.0
2026-05-26 15:27:07.952220,1779823627.952220,-2874924,-3650904,164673467,-13894,38112,31454,-0.1720786953405762,-0.21852501044677738,9.856537201877138,-0.0032122030792236327,0.008811248291015625,0.007271961685180664,61,fe56fe00,0.0,0.0,0.0,0.0,0.0,0.0
2026-05-26 15:27:07.953773,1779823627.953773,-2874924,-3650904,164673467,-13894,38112,31454,-0.1720786953405762,-0.21852501044677738,9.856537201877138,-0.0032122030792236327,0.008811248291015625,0.007271961685180664,61,fe56fe00,0.0,0.0,0.0,0.0,0.0,0.0
2026-05-26 15:27:07.955370,1779823627.955370,-2874924,-3650904,164673467,-13894,38112,31454,-0.1720786953405762,-0.21852501044677738,9.856537201877138,-0.0032122030792236327,0.008811248291015625,0.007271961685180664,61,fe56fe00,0.0,0.0,0.0,0.0,0.0,0.0
2026-05-26 15:27:07.956298,1779823627.956298,-3067142,-3558746,164248235,-24795,17025,22026,-0.18358391170837404,-0.21300888953186037,9.831084922868348,-0.005732443885803223,0.003936070060729981,0.005092268966674805,61,fe56fe00,0.0,0.0,0.0,0.0,0.0,0.0
2026-05-26 15:27:07.957549,1779823627.957549,-2922949,-3315622,164209044,-65037,-2808,31893,-0.17495323370880128,-0.19845669242126468,9.828739143936769,-0.015036134422302247,-0.0006491914672851562,0.00737345565032959,61,fe56fe00,0.0,0.0,0.0,0.0,0.0,0.0
2026-05-26 15:27:07.959149,1779823627.959149,-2922949,-3315622,164209044,-65037,-2808,31893,-0.17495323370880128,-0.19845669242126468,9.828739143936769,-0.015036134422302247,-0.0006491914672851562,0.00737345565032959,61,fe56fe00,0.0,0.0,0.0,0.0,0.0,0.0
2026-05-26 15:27:07.960076,1779823627.960076,-2475895,-3499905,164077550,-77558,-5016,51147,-0.14819479798431398,-0.20948695903472903,9.820868565109254,-0.017930908767700194,-0.0011596668090820314,0.011824856117248535,61,fe56fe00,0.0,0.0,0.0,0.0,0.0,0.0
2026-05-26 15:27:07.961751,1779823627.961751,-2475895,-3499905,164077550,-77558,-5016,51147,-0.14819479798431398,-0.20948695903472903,9.820868565109254,-0.017930908767700194,-0.0011596668090820314,0.011824856117248535,61,fe56fe00,0.0,0.0,0.0,0.0,0.0,0.0
2026-05-26 15:27:07.962630,1779823627.962630,-2412949,-3704220,163889902,-73697,104941,79112,-0.1444271625418091,-0.22171624183959965,9.80963688628113,-0.017038270500183104,0.02426168154144287,0.018290183532714843,61,fe56fe00,0.0,0.0,0.0,0.0,0.0,0.0
2026-05-26 15:27:07.964249,1779823627.964249,-2412949,-3704220,163889902,-73697,104941,79112,-0.1444271625418091,-0.22171624183959965,9.80963688628113,-0.017038270500183104,0.02426168154144287,0.018290183532714843,61,fe56fe00,0.0,0.0,0.0,0.0,0.0,0.0
2026-05-26 15:27:07.965129,1779823627.965129,-2607348,-3892367,164414119,-29741,39580,93116,-0.15606292275512698,-0.2329777883334351,9.841013916573182,-0.006875927146911621,0.009150640411376953,0.02152781790161133,61,fe56fe00,0.0,0.0,0.0,0.0,0.0,0.0
2026-05-26 15:27:07.966873,1779823627.966873,-2607348,-3892367,164414119,-29741,39580,93116,-0.15606292275512698,-0.2329777883334351,9.841013916573182,-0.006875927146911621,0.009150640411376953,0.02152781790161133,61,fe56fe00,0.0,0.0,0.0,0.0,0.0,0.0
2026-05-26 15:27:07.967691,1779823627.967691,-2788933,-3870201,164767329,-56946,50168,123839,-0.1669317004666138,-0.2316510414834595,9.862155315782777,-0.013165547470092773,0.011598517639160156,0.02863077710723877,61,fe56fe00,0.0,0.0,0.0,0.0,0.0,0.0
2026-05-26 15:27:07.969106,1779823627.969106,-2788933,-3870201,164767329,-56946,50168,123839,-0.1669317004666138,-0.2316510414834595,9.862155315782777,-0.013165547470092773,0.011598517639160156,0.02863077710723877,61,fe56fe00,0.0,0.0,0.0,0.0,0.0,0.0
2026-05-26 15:27:07.969950,1779823627.969950,-2893345,-3988177,164467121,10416,-54538,96764,-0.17318128506011965,-0.23871249985992435,9.844186353482973,0.0024081119384765626,-0.012608833419799804,0.02237121194458008,61,fe56fe00,0.0,0.0,0.0,0.0,0.0,0.0
2026-05-26 15:27:07.971480,1779823627.971480,-2893345,-3988177,164467121,10416,-54538,96764,-0.17318128506011965,-0.23871249985992435,9.844186353482973,0.0024081119384765626,-0.012608833419799804,0.02237121194458008,61,fe56fe00,0.0,0.0,0.0,0.0,0.0,0.0
2026-05-26 15:27:07.972335,1779823627.972335,-2518536,-4050607,164242509,18290,-94318,69803,-0.15074707680908206,-0.24244925010101323,9.830742192900697,0.004228529891967773,-0.021805712539672853,0.01613800284576416,61,fe56fe00,0.0,0.0,0.0,0.0,0.0,0.0
2026-05-26 15:27:07.973877,1779823627.973877,-2518536,-4050607,164242509,18290,-94318,69803,-0.15074707680908206,-0.24244925010101323,9.830742192900697,0.004228529891967773,-0.021805712539672853,0.01613800284576416,61,fe56fe00,0.0,0.0,0.0,0.0,0.0,0.0
2026-05-26 15:27:07.974617,1779823627.974617,-2293348,-4042236,163790650,58123,1815,35311,-0.1372684397229004,-0.241948203548584,9.803696153701784,0.013437662269592286,0.00041961627960205076,0.008163675178527832,61,fe56fe00,0.0,0.0,0.0,0.0,0.0,0.0
2026-05-26 15:27:07.976204,1779823627.976204,-2293348,-4042236,163790650,58123,1815,35311,-0.1372684397229004,-0.241948203548584,9.803696153701784,0.013437662269592286,0.00041961627960205076,0.008163675178527832,61,fe56fe00,0.0,0.0,0.0,0.0,0.0,0.0
2026-05-26 15:27:07.977128,1779823627.977128,-2623145,-3713820,164071082,38436,92194,43909,-0.15700845284576417,-0.22229085023803713,9.820481422700807,0.008886154998779297,0.021314657455444336,0.010151477256774902,61,fe56fe00,0.0,0.0,0.0,0.0,0.0,0.0
2026-05-26 15:27:07.978433,1779823627.978433,-2623145,-3713820,164071082,38436,92194,43909,-0.15700845284576417,-0.22229085023803713,9.820481422700807,0.008886154998779297,0.021314657455444336,0.010151477256774902,61,fe56fe00,0.0,0.0,0.0,0.0,0.0,0.0
2026-05-26 15:27:07.979144,1779823627.979144,-2813174,-3433577,164852723,-8538,-3840,41293,-0.16838264652770998,-0.20551689384185795,9.867266577196961,-0.001973930465698242,-0.000887783203125,0.009546674949645995,61,fe55fe00,0.0,0.0,0.0,0.0,0.0,0.0
2026-05-26 15:27:07.980439,1779823627.980439,-2813174,-3433577,164852723,-8538,-3840,41293,-0.16838264652770998,-0.20551689384185795,9.867266577196961,-0.001973930465698242,-0.000887783203125,0.009546674949645995,61,fe55fe00,0.0,0.0,0.0,0.0,0.0,0.0
2026-05-26 15:27:07.981180,1779823627.981180,-2736152,-3436316,164398819,-21699,-50705,59793,-0.16377249152099613,-0.20568083680053714,9.840098134438172,-0.0050166686782836915,-0.011722668571472169,0.013823755485534668,61,fe55fe00,0.0,0.0,0.0,0.0,0.0,0.0
2026-05-26 15:27:07.982505,1779823627.982505,-2736152,-3436316,164398819,-21699,-50705,59793,-0.16377249152099613,-0.20568083680053714,9.840098134438172,-0.0050166686782836915,-0.011722668571472169,0.013823755485534668,61,fe55fe00,0.0,0.0,0.0,0.0,0.0,0.0
2026-05-26 15:27:07.983223,1779823627.983223,-2549571,-3514537,163921607,10189,-55482,80802,-0.15260467802215577,-0.21036275800201418,9.81153459037201,0.002355631004333496,-0.012827080123901368,0.018680900619506835,61,fe56fe00,0.0,0.0,0.0,0.0,0.0,0.0
2026-05-26 15:27:07.984462,1779823627.984462,-2549571,-3514537,163921607,10189,-55482,80802,-0.15260467802215577,-0.21036275800201418,9.81153459037201,0.002355631004333496,-0.012827080123901368,0.018680900619506835,61,fe56fe00,0.0,0.0,0.0,0.0,0.0,0.0
2026-05-26 15:27:07.985176,1779823627.985176,-2411344,-3621900,164271704,-4166,32713,84757,-0.14433109520019533,-0.21678897482299808,9.832489660837403,-0.0009631522979736329,0.0075630343551635745,0.01959527108001709,61,fe55fe00,0.0,0.0,0.0,0.0,0.0,0.0
2026-05-26 15:27:07.986392,1779823627.986392,-2411344,-3621900,164271704,-4166,32713,84757,-0.14433109520019533,-0.21678897482299808,9.832489660837403,-0.0009631522979736329,0.0075630343551635745,0.01959527108001709,61,fe55fe00,0.0,0.0,0.0,0.0,0.0,0.0
2026-05-26 15:27:07.987095,1779823627.987095,-2291347,-3756106,164506766,-79548,51450,111623,-0.1371486697848511,-0.2248218805230713,9.846559306603394,-0.018390983917236328,0.011894907760620117,0.025806516792297365,61,fe55fe00,0.0,0.0,0.0,0.0,0.0,0.0
2026-05-26 15:27:07.988246,1779823627.988246,-2291347,-3756106,164506766,-79548,51450,111623,-0.1371486697848511,-0.2248218805230713,9.846559306603394,-0.018390983917236328,0.011894907760620117,0.025806516792297365,61,fe55fe00,0.0,0.0,0.0,0.0,0.0,0.0
2026-05-26 15:27:07.988888,1779823627.988888,-2465556,-4024857,164161638,-101190,21572,86408,-0.1475759567102051,-0.24090798278228764,9.825901655839235,-0.02339447456359863,0.004987307098388672,0.019976971618652344,61,fe55fe00,0.0,0.0,0.0,0.0,0.0,0.0
2026-05-26 15:27:07.990162,1779823627.990162,-2465556,-4024857,164161638,-101190,21572,86408,-0.1475759567102051,-0.24090798278228764,9.825901655839235,-0.02339447456359863,0.004987307098388672,0.019976971618652344,61,fe55fe00,0.0,0.0,0.0,0.0,0.0,0.0
2026-05-26 15:27:07.990802,1779823627.990802,-2318051,-4061267,164118115,-94568,20528,71314,-0.1387470388131714,-0.24308730484344485,9.82329658486786,-0.02186351092529297,0.004745941040039062,0.01648733628845215,61,fe55fe00,0.0,0.0,0.0,0.0,0.0,0.0
2026-05-26 15:27:07.991917,1779823627.991917,-2318051,-4061267,164118115,-94568,20528,71314,-0.1387470388131714,-0.24308730484344485,9.82329658486786,-0.02186351092529297,0.004745941040039062,0.01648733628845215,61,fe55fe00,0.0,0.0,0.0,0.0,0.0,0.0
2026-05-26 15:27:07.992666,1779823627.992666,-2624383,-3856707,164100705,-46795,140982,54831,-0.15708255338714602,-0.2308433575534058,9.822254508595277,-0.010818701820373535,0.032594128005981444,0.012676573127746582,61,fe55fe00,0.0,0.0,0.0,0.0,0.0,0.0
2026-05-26 15:27:07.993787,1779823627.993787,-2624383,-3856707,164100705,-46795,140982,54831,-0.15708255338714602,-0.2308433575534058,9.822254508595277,-0.010818701820373535,0.032594128005981444,0.012676573127746582,61,fe55fe00,0.0,0.0,0.0,0.0,0.0,0.0
2026-05-26 15:27:07.994460,1779823627.994460,-2858526,-3608883,164757882,-31059,42101,53188,-0.17109719236999515,-0.21600984174774174,9.86158986520569,-0.007180640235900879,0.009733479331970215,0.012296722137451171,61,fe55fe00,0.0,0.0,0.0,0.0,0.0,0.0
2026-05-26 15:27:07.995719,1779823627.995719,-2858526,-3608883,164757882,-31059,42101,53188,-0.17109719236999515,-0.21600984174774174,9.86158986520569,-0.007180640235900879,0.009733479331970215,0.012296722137451171,61,fe55fe00,0.0,0.0,0.0,0.0,0.0,0.0
2026-05-26 15:27:07.996478,1779823627.996478,-2585559,-3634042,164531593,-114332,-74016,74373,-0.15475874125579836,-0.2175157347369385,9.848045327718813,-0.026432820098876954,-0.017112021240234376,0.017194557334899902,61,fe55fe00,0.0,0.0,0.0,0.0,0.0,0.0
2026-05-26 15:27:07.997761,1779823627.997761,-2585559,-3634042,164531593,-114332,-74016,74373,-0.15475874125579836,-0.2175157347369385,9.848045327718813,-0.026432820098876954,-0.017112021240234376,0.017194557334899902,61,fe55fe00,0.0,0.0,0.0,0.0,0.0,0.0
2026-05-26 15:27:07.998486,1779823627.998486,-2244458,-3886821,163315834,-50668,1848,80560,-0.13434212674377444,-0.23264583227325442,9.775276022315065,-0.01171411441040039,0.00042724566650390624,0.018624951782226562,61,fe55fe00,0.0,0.0,0.0,0.0,0.0,0.0
2026-05-26 15:27:07.999956,1779823627.999956,-2244458,-3886821,163315834,-50668,1848,80560,-0.13434212674377444,-0.23264583227325442,9.775276022315065,-0.01171411441040039,0.00042724566650390624,0.018624951782226562,61,fe55fe00,0.0,0.0,0.0,0.0,0.0,0.0
2026-05-26 15:27:08.000928,1779823628.000928,-2336814,-3952677,163544306,-23013,96522,98023,-0.1398700989569092,-0.2365876458865357,9.788951223357545,-0.005320456993103027,0.022315263107299806,0.02266228461456299,61,fe55fe00,0.0,0.0,0.0,0.0,0.0,0.0
2026-05-26 15:27:08.002792,1779823628.002792,-2336814,-3952677,163544306,-23013,96522,98023,-0.1398700989569092,-0.2365876458865357,9.788951223357545,-0.005320456993103027,0.022315263107299806,0.02266228461456299,61,fe55fe00,0.0,0.0,0.0,0.0,0.0,0.0
2026-05-26 15:27:08.003544,1779823628.003544,-2600836,-3914691,164874581,-37594,98964,121823,-0.15567314672485355,-0.2343139922799683,9.868574888694154,-0.008691490036010743,0.02287983773803711,0.028164690925598146,61,fe55fe00,0.0,0.0,0.0,0.0,0.0,0.0
2026-05-26 15:27:08.005038,1779823628.005038,-2600836,-3914691,164874581,-37594,98964,121823,-0.15567314672485355,-0.2343139922799683,9.868574888694154,-0.008691490036010743,0.02287983773803711,0.028164690925598146,61,fe55fe00,0.0,0.0,0.0,0.0,0.0,0.0
2026-05-26 15:27:08.005853,1779823628.005853,-2959742,-3976649,165100627,-55310,-23010,135104,-0.1771554802508545,-0.23802249094146732,9.882104881405946,-0.012787314834594726,-0.005319763412475586,0.03123517236328125,61,fe55fe00,0.0,0.0,0.0,0.0,0.0,0.0
2026-05-26 15:27:08.007181,1779823628.007181,-2959742,-3976649,165100627,-55310,-23010,135104,-0.1771554802508545,-0.23802249094146732,9.882104881405946,-0.012787314834594726,-0.005319763412475586,0.03123517236328125,61,fe55fe00,0.0,0.0,0.0,0.0,0.0,0.0
2026-05-26 15:27:08.007930,1779823628.007930,-2743314,-4283946,164387143,-20938,-189363,128236,-0.1642011733282471,-0.2564157656304932,9.839399266973572,-0.004840730392456054,-0.043779502784729,0.02964733511352539,61,fe55fe00,0.0,0.0,0.0,0.0,0.0,0.0
2026-05-26 15:27:08.009235,1779823628.009235,-2743314,-4283946,164387143,-20938,-189363,128236,-0.1642011733282471,-0.2564157656304932,9.839399266973572,-0.004840730392456054,-0.043779502784729,0.02964733511352539,61,fe55fe00,0.0,0.0,0.0,0.0,0.0,0.0
2026-05-26 15:27:08.009967,1779823628.009967,-2365455,-4530727,163628746,122966,-28792,99207,-0.14158440720062257,-0.2711868526278687,9.794005383062135,0.02842894514465332,-0.006656524475097656,0.022936017768859864,61,fe55fe00,0.0,0.0,0.0,0.0,0.0,0.0
2026-05-26 15:27:08.011253,1779823628.011253,-2365455,-4530727,163628746,122966,-28792,99207,-0.14158440720062257,-0.2711868526278687,9.794005383062135,0.02842894514465332,-0.006656524475097656,0.022936017768859864,61,fe55fe00,0.0,0.0,0.0,0.0,0.0,0.0
2026-05-26 15:27:08.012033,1779823628.012033,-2419340,-4287352,163981245,166850,92865,84481,-0.14480969611206057,-0.2566196319018555,9.81510422533722,0.03857464256286621,0.02146978832244873,0.01953146166229248,61,fe55fe00,0.0,0.0,0.0,0.0,0.0,0.0
2026-05-26 15:27:08.013465,1779823628.013465,-2419340,-4287352,163981245,166850,92865,84481,-0.14480969611206057,-0.2566196319018555,9.81510422533722,0.03857464256286621,0.02146978832244873,0.01953146166229248,61,fe55fe00,0.0,0.0,0.0,0.0,0.0,0.0
2026-05-26 15:27:08.014608,1779823628.014608,-2514153,-4012175,164895059,159053,91961,72991,-0.15048473216217043,-0.2401489011459351,9.869800600234072,0.036772026512146,0.021260789360046387,0.016875047859191895,61,fe54fe00,0.0,0.0,0.0,0.0,0.0,0.0
2026-05-26 15:27:08.016153,1779823628.016153,-2514153,-4012175,164895059,159053,91961,72991,-0.15048473216217043,-0.2401489011459351,9.869800600234072,0.036772026512146,0.021260789360046387,0.016875047859191895,61,fe54fe00,0.0,0.0,0.0,0.0,0.0,0.0
2026-05-26 15:27:08.016884,1779823628.016884,-2629152,-3687624,164605318,73960,11853,82035,-0.15736800208007815,-0.2207228875708008,9.852458140653688,0.017099074401855468,0.0027403370590209962,0.018965962257385255,61,fe54fe00,0.0,0.0,0.0,0.0,0.0,0.0
2026-05-26 15:27:08.018208,1779823628.018208,-2629152,-3687624,164605318,73960,11853,82035,-0.15736800208007815,-0.2207228875708008,9.852458140653688,0.017099074401855468,0.0027403370590209962,0.018965962257385255,61,fe54fe00,0.0,0.0,0.0,0.0,0.0,0.0
2026-05-26 15:27:08.018902,1779823628.018902,-2488069,-3691707,163881496,153645,12381,104915,-0.14892347325958255,-0.22096727570526126,9.809133744802248,0.035521731834411624,0.0028624072494506836,0.02425567050933838,61,fe54fe00,0.0,0.0,0.0,0.0,0.0,0.0
2026-05-26 15:27:08.020225,1779823628.020225,-2488069,-3691707,163881496,153645,12381,104915,-0.14892347325958255,-0.22096727570526126,9.809133744802248,0.035521731834411624,0.0028624072494506836,0.02425567050933838,61,fe54fe00,0.0,0.0,0.0,0.0,0.0,0.0
2026-05-26 15:27:08.020939,1779823628.020939,-2522181,-3530629,164111627,172479,73626,124604,-0.1509652484353638,-0.21132594532989504,9.822908245358583,0.03987603101348877,0.017021855758666993,0.028807640167236328,61,fe54fe00,0.0,0.0,0.0,0.0,0.0,0.0
2026-05-26 15:27:08.022455,1779823628.022455,-2522181,-3530629,164111627,172479,73626,124604,-0.1509652484353638,-0.21132594532989504,9.822908245358583,0.03987603101348877,0.017021855758666993,0.028807640167236328,61,fe54fe00,0.0,0.0,0.0,0.0,0.0,0.0
2026-05-26 15:27:08.023190,1779823628.023190,-2325858,-3557479,164524655,119105,52087,148197,-0.1392143271221924,-0.21293305319427494,9.847630053440858,0.02753630687713623,0.012042178047180175,0.03426218941497803,61,fe54fe00,0.0,0.0,0.0,0.0,0.0,0.0
2026-05-26 15:27:08.024687,1779823628.024687,-2325858,-3557479,164524655,119105,52087,148197,-0.1392143271221924,-0.21293305319427494,9.847630053440858,0.02753630687713623,0.012042178047180175,0.03426218941497803,61,fe54fe00,0.0,0.0,0.0,0.0,0.0,0.0
2026-05-26 15:27:08.025703,1779823628.025703,-2417980,-3622111,164167205,37206,113742,157037,-0.14472829325561526,-0.2168016042367554,9.826234868855288,0.00860178694152832,0.026296415908813476,0.03630594033050537,61,fe54fe00,0.0,0.0,0.0,0.0,0.0,0.0
2026-05-26 15:27:08.027606,1779823628.027606,-2417980,-3622111,164167205,37206,113742,157037,-0.14472829325561526,-0.2168016042367554,9.826234868855288,0.00860178694152832,0.026296415908813476,0.03630594033050537,61,fe54fe00,0.0,0.0,0.0,0.0,0.0,0.0
2026-05-26 15:27:08.028569,1779823628.028569,-2518538,-3642677,164180232,74337,42208,130577,-0.15074719651916507,-0.21803258302032474,9.827014600480958,0.017186234367370604,0.009758217041015625,0.03018855919647217,61,fe54fe00,0.0,0.0,0.0,0.0,0.0,0.0
2026-05-26 15:27:08.030108,1779823628.030108,-2518538,-3642677,164180232,74337,42208,130577,-0.15074719651916507,-0.21803258302032474,9.827014600480958,0.017186234367370604,0.009758217041015625,0.03018855919647217,61,fe54fe00,0.0,0.0,0.0,0.0,0.0,0.0
2026-05-26 15:27:08.030862,1779823628.030862,-2781949,-3713610,164386686,94479,89393,104895,-0.1665136728567505,-0.22227828067932132,9.839371913219606,0.021842934700012206,0.020667084342956544,0.02425104663848877,61,fe54fe00,0.0,0.0,0.0,0.0,0.0,0.0
2026-05-26 15:27:08.032371,1779823628.032371,-2781949,-3713610,164386686,94479,89393,104895,-0.1665136728567505,-0.22227828067932132,9.839371913219606,0.021842934700012206,0.020667084342956544,0.02425104663848877,61,fe54fe00,0.0,0.0,0.0,0.0,0.0,0.0
2026-05-26 15:27:08.033272,1779823628.033272,-2980427,-3509153,164626771,87262,7420,81464,-0.17839358178436282,-0.21004049845855716,9.853742210859071,0.020174410903930663,0.0017154560852050782,0.018833950744628906,61,fe54fe00,0.0,0.0,0.0,0.0,0.0,0.0
2026-05-26 15:27:08.034729,1779823628.034729,-2980427,-3509153,164626771,87262,7420,81464,-0.17839358178436282,-0.21004049845855716,9.853742210859071,0.020174410903930663,0.0017154560852050782,0.018833950744628906,61,fe54fe00,0.0,0.0,0.0,0.0,0.0,0.0
2026-05-26 15:27:08.035526,1779823628.035526,-2731234,-3381094,164505924,-510,-88711,71689,-0.1634781244268799,-0.20237552169860842,9.846508908658448,-0.00011790870666503906,-0.020509410346984863,0.016574033866882325,61,fe54fe00,0.0,0.0,0.0,0.0,0.0,0.0
2026-05-26 15:27:08.037201,1779823628.037201,-2731234,-3381094,164505924,-510,-88711,71689,-0.1634781244268799,-0.20237552169860842,9.846508908658448,-0.00011790870666503906,-0.020509410346984863,0.016574033866882325,61,fe54fe00,0.0,0.0,0.0,0.0,0.0,0.0
2026-05-26 15:27:08.037928,1779823628.037928,-2313754,-3430494,163616813,34154,-37384,62652,-0.1384898416998291,-0.2053323607489014,9.79329113285187,0.00789618424987793,-0.008642939392089844,0.014484737823486329,61,fe54fe00,0.0,0.0,0.0,0.0,0.0,0.0
2026-05-26 15:27:08.039440,1779823628.039440,-2313754,-3430494,163616813,34154,-37384,62652,-0.1384898416998291,-0.2053323607489014,9.79329113285187,0.00789618424987793,-0.008642939392089844,0.014484737823486329,61,fe54fe00,0.0,0.0,0.0,0.0,0.0,0.0
2026-05-26 15:27:08.040358,1779823628.040358,-2316198,-3448618,163583120,49389,50164,62892,-0.13863612742126466,-0.20641717352111819,9.791274436938478,0.011418417869567871,0.011597592864990234,0.01454022427368164,61,fe53fe00,0.0,0.0,0.0,0.0,0.0,0.0
2026-05-26 15:27:08.041966,1779823628.041966,-2316198,-3448618,163583120,49389,50164,62892,-0.13863612742126466,-0.20641717352111819,9.791274436938478,0.011418417869567871,0.011597592864990234,0.01454022427368164,61,fe53fe00,0.0,0.0,0.0,0.0,0.0,0.0
2026-05-26 15:27:08.042892,1779823628.042892,-2387050,-3327722,164549777,-28306,51057,69313,-0.14287697682189943,-0.19918093842346193,9.84913373179352,-0.006544164413452148,0.011804048698425293,0.01602471800994873,61,fe53fe00,0.0,0.0,0.0,0.0,0.0,0.0
2026-05-26 15:27:08.044416,1779823628.044416,-2387050,-3327722,164549777,-28306,51057,69313,-0.14287697682189943,-0.19918093842346193,9.84913373179352,-0.006544164413452148,0.011804048698425293,0.01602471800994873,61,fe53fe00,0.0,0.0,0.0,0.0,0.0,0.0
2026-05-26 15:27:08.045293,1779823628.045293,-2634630,-3191334,164604802,-59257,44333,87766,-0.15769588799743656,-0.19101742902282717,9.852427255452271,-0.013699835746765136,0.01024950331878662,0.02029093244934082,61,fe53fe00,0.0,0.0,0.0,0.0,0.0,0.0
2026-05-26 15:27:08.046939,1779823628.046939,-2634630,-3191334,164604802,-59257,44333,87766,-0.15769588799743656,-0.19101742902282717,9.852427255452271,-0.013699835746765136,0.01024950331878662,0.02029093244934082,61,fe53fe00,0.0,0.0,0.0,0.0,0.0,0.0
2026-05-26 15:27:08.047816,1779823628.047816,-2778820,-3402001,164293810,-34802,-46320,72624,-0.1663263864318848,-0.2036269110513306,9.833812816384889,-0.008045997665405273,-0.010708884887695313,0.016790199829101564,61,fe53fe00,0.0,0.0,0.0,0.0,0.0,0.0
2026-05-26 15:27:08.049248,1779823628.049248,-2778820,-3402001,164293810,-34802,-46320,72624,-0.1663263864318848,-0.2036269110513306,9.833812816384889,-0.008045997665405273,-0.010708884887695313,0.016790199829101564,61,fe53fe00,0.0,0.0,0.0,0.0,0.0,0.0
2026-05-26 15:27:08.050091,1779823628.050091,-2643936,-3625747,164207521,29147,-50202,33017,-0.1582528990136719,-0.2170192371676636,9.828647984708558,0.0067385981826782225,-0.011606378219604491,0.0076333171920776365,61,fe53fe00,0.0,0.0,0.0,0.0,0.0,0.0
2026-05-26 15:27:08.051564,1779823628.051564,-2643936,-3625747,164207521,29147,-50202,33017,-0.1582528990136719,-0.2170192371676636,9.828647984708558,0.0067385981826782225,-0.011606378219604491,0.0076333171920776365,61,fe53fe00,0.0,0.0,0.0,0.0,0.0,0.0
2026-05-26 15:27:08.052514,1779823628.052514,-2665375,-3678644,164159787,41291,20809,-5469,-0.15953613124847416,-0.22018538929809572,9.825790864157412,0.009546212562561034,0.004810906425476074,-0.0012643974838256835,61,fe53fe00,0.0,0.0,0.0,0.0,0.0,0.0
2026-05-26 15:27:08.053985,1779823628.053985,-2665375,-3678644,164159787,41291,20809,-5469,-0.15953613124847416,-0.22018538929809572,9.825790864157412,0.009546212562561034,0.004810906425476074,-0.0012643974838256835,61,fe53fe00,0.0,0.0,0.0,0.0,0.0,0.0
2026-05-26 15:27:08.054886,1779823628.054886,-2787992,-3588298,164368365,-23070,-34892,-51469,-0.16687537687255863,-0.21477772571838383,9.838275309004214,-0.005333635025024414,-0.008066805084228516,-0.011899300437927246,61,fe53fe00,0.0,0.0,0.0,0.0,0.0,0.0
2026-05-26 15:27:08.056786,1779823628.056786,-2787992,-3588298,164368365,-23070,-34892,-51469,-0.16687537687255863,-0.21477772571838383,9.838275309004214,-0.005333635025024414,-0.008066805084228516,-0.011899300437927246,61,fe53fe00,0.0,0.0,0.0,0.0,0.0,0.0
2026-05-26 15:27:08.057754,1779823628.057754,-2716250,-3380651,164461626,-16931,-14267,-50618,-0.16258125648498536,-0.2023490059152222,9.843857450029908,-0.003914337867736817,-0.0032984382705688476,-0.011702554733276367,61,fe53fe00,0.0,0.0,0.0,0.0,0.0,0.0
2026-05-26 15:27:08.059349,1779823628.059349,-2716250,-3380651,164461626,-16931,-14267,-50618,-0.16258125648498536,-0.2023490059152222,9.843857450029908,-0.003914337867736817,-0.0032984382705688476,-0.011702554733276367,61,fe53fe00,0.0,0.0,0.0,0.0,0.0,0.0
2026-05-26 15:27:08.060885,1779823628.060885,-2716250,-3380651,164461626,-16931,-14267,-50618,-0.16258125648498536,-0.2023490059152222,9.843857450029908,-0.003914337867736817,-0.0032984382705688476,-0.011702554733276367,61,fe53fe00,0.0,0.0,0.0,0.0,0.0,0.0
2026-05-26 15:27:08.061772,1779823628.061772,-2652040,-3330456,164166683,-14706,-65212,-48065,-0.15873796427001954,-0.19934458210693362,9.826203624523622,-0.0033999322357177735,-0.015076593292236328,-0.011112317619323731,61,fe53fe00,0.0,0.0,0.0,0.0,0.0,0.0
2026-05-26 15:27:08.062680,1779823628.062680,-2548874,-3331580,164441536,49776,-23516,-41641,-0.15256295905822756,-0.199411859173584,9.842654962246096,0.011507889770507812,-0.0054367473449707035,-0.009627130302429199,61,fe53fe00,0.0,0.0,0.0,0.0,0.0,0.0
2026-05-26 15:27:08.064297,1779823628.064297,-2548874,-3331580,164441536,49776,-23516,-41641,-0.15256295905822756,-0.199411859173584,9.842654962246096,0.011507889770507812,-0.0054367473449707035,-0.009627130302429199,61,fe53fe00,0.0,0.0,0.0,0.0,0.0,0.0
2026-05-26 15:27:08.065228,1779823628.065228,-2378841,-3364218,164628306,-56200,-68947,3023,-0.14238562678619388,-0.2013654080181885,9.85383408834778,-0.012993077087402344,-0.01594010117340088,0.000698898078918457,61,fe53fe00,0.0,0.0,0.0,0.0,0.0,0.0
2026-05-26 15:27:08.066819,1779823628.066819,-2378841,-3364218,164628306,-56200,-68947,3023,-0.14238562678619388,-0.2013654080181885,9.85383408834778,-0.012993077087402344,-0.01594010117340088,0.000698898078918457,61,fe53fe00,0.0,0.0,0.0,0.0,0.0,0.0
2026-05-26 15:27:08.067714,1779823628.067714,-2124916,-3569566,164148747,-128059,15434,17225,-0.12718693537231446,-0.21365652108093264,9.825130064499207,-0.029606413856506347,0.0035682411346435548,0.003982308769226074,61,fe53fe00,0.0,0.0,0.0,0.0,0.0,0.0
2026-05-26 15:27:08.069335,1779823628.069335,-2124916,-3569566,164148747,-128059,15434,17225,-0.12718693537231446,-0.21365652108093264,9.825130064499207,-0.029606413856506347,0.0035682411346435548,0.003982308769226074,61,fe53fe00,0.0,0.0,0.0,0.0,0.0,0.0
2026-05-26 15:27:08.070272,1779823628.070272,-2225155,-3719150,163821324,-137055,23060,50316,-0.13318674487762452,-0.22260987760925297,9.805532147244875,-0.031686230964660646,0.00533132308959961,0.011632734283447266,61,fe53fe00,0.0,0.0,0.0,0.0,0.0,0.0
2026-05-26 15:27:08.071809,1779823628.071809,-2225155,-3719150,163821324,-137055,23060,50316,-0.13318674487762452,-0.22260987760925297,9.805532147244875,-0.031686230964660646,0.00533132308959961,0.011632734283447266,61,fe53fe00,0.0,0.0,0.0,0.0,0.0,0.0
2026-05-26 15:27:08.072681,1779823628.072681,-2395841,-3808024,164170491,-119711,110351,35270,-0.14340316249176027,-0.22792943456787113,9.826431552521669,-0.027676410163879395,0.025512438606262205,0.008154196243286133,61,fe52fe00,0.0,0.0,0.0,0.0,0.0,0.0
2026-05-26 15:27:08.074235,1779823628.074235,-2395841,-3808024,164170491,-119711,110351,35270,-0.14340316249176027,-0.22792943456787113,9.826431552521669,-0.027676410163879395,0.025512438606262205,0.008154196243286133,61,fe52fe00,0.0,0.0,0.0,0.0,0.0,0.0
2026-05-26 15:27:08.075069,1779823628.075069,-3088648,-3663790,164735543,-113864,109673,38688,-0.18487115423095707,-0.2192963025115967,9.860252763433534,-0.026324621520996093,0.02535568938446045,0.008944415771484375,61,fe52fe00,0.0,0.0,0.0,0.0,0.0,0.0
2026-05-26 15:27:08.076610,1779823628.076610,-3088648,-3663790,164735543,-113864,109673,38688,-0.18487115423095707,-0.2192963025115967,9.860252763433534,-0.026324621520996093,0.02535568938446045,0.008944415771484375,61,fe52fe00,0.0,0.0,0.0,0.0,0.0,0.0
2026-05-26 15:27:08.077457,1779823628.077457,-3314819,-3618156,165177714,-155925,-59449,55167,-0.19840862882293703,-0.21656487754760745,9.886718926990358,-0.03604885311126709,-0.013744224906921386,0.01275425415802002,61,fe53fe00,0.0,0.0,0.0,0.0,0.0,0.0
2026-05-26 15:27:08.079079,1779823628.079079,-3314819,-3618156,165177714,-155925,-59449,55167,-0.19840862882293703,-0.21656487754760745,9.886718926990358,-0.03604885311126709,-0.013744224906921386,0.01275425415802002,61,fe53fe00,0.0,0.0,0.0,0.0,0.0,0.0
2026-05-26 15:27:08.079901,1779823628.079901,-2780317,-3963411,164170857,-210463,-159749,88994,-0.16641598942901614,-0.2372301299020386,9.82645345946686,-0.0486576865310669,-0.0369329372177124,0.020574838119506837,61,fe53fe00,0.0,0.0,0.0,0.0,0.0,0.0
2026-05-26 15:27:08.081372,1779823628.081372,-2780317,-3963411,164170857,-210463,-159749,88994,-0.16641598942901614,-0.2372301299020386,9.82645345946686,-0.0486576865310669,-0.0369329372177124,0.020574838119506837,61,fe53fe00,0.0,0.0,0.0,0.0,0.0,0.0
2026-05-26 15:27:08.082226,1779823628.082226,-2331095,-4276703,163027808,-105135,-243,105717,-0.13952778797454837,-0.2559822355648804,9.758036214130861,-0.024306533088684083,-5.618003082275391e-05,0.024441087730407714,61,fe53fe00,0.0,0.0,0.0,0.0,0.0,0.0
2026-05-26 15:27:08.083641,1779823628.083641,-2331095,-4276703,163027808,-105135,-243,105717,-0.13952778797454837,-0.2559822355648804,9.758036214130861,-0.024306533088684083,-5.618003082275391e-05,0.024441087730407714,61,fe53fe00,0.0,0.0,0.0,0.0,0.0,0.0
2026-05-26 15:27:08.084458,1779823628.084458,-2259871,-4295181,163883181,-98335,88875,114085,-0.13526467249847415,-0.25708823702178957,9.809234600547182,-0.022734416999816896,0.02054732608795166,0.02637571529388428,61,fe52fe00,0.0,0.0,0.0,0.0,0.0,0.0
2026-05-26 15:27:08.085841,1779823628.085841,-2259871,-4295181,163883181,-98335,88875,114085,-0.13526467249847415,-0.25708823702178957,9.809234600547182,-0.022734416999816896,0.02054732608795166,0.02637571529388428,61,fe52fe00,0.0,0.0,0.0,0.0,0.0,0.0
2026-05-26 15:27:08.086699,1779823628.086699,-2688965,-4029416,165090104,-114480,124501,158821,-0.1609481116775513,-0.24118086191650395,9.8814750268042,-0.02646703674316406,0.02878382723236084,0.03671838961029053,61,fe52fe00,0.0,0.0,0.0,0.0,0.0,0.0
2026-05-26 15:27:08.088051,1779823628.088051,-2688965,-4029416,165090104,-114480,124501,158821,-0.1609481116775513,-0.24118086191650395,9.8814750268042,-0.02646703674316406,0.02878382723236084,0.03671838961029053,61,fe52fe00,0.0,0.0,0.0,0.0,0.0,0.0
2026-05-26 15:27:08.088794,1779823628.088794,-3010026,-3934533,164960744,-136678,-78209,179110,-0.18016523115783695,-0.2355016360134888,9.873732178635255,-0.03159907099914551,-0.01808141576385498,0.04140907539367676,61,fe52fe00,0.0,0.0,0.0,0.0,0.0,0.0
2026-05-26 15:27:08.090149,1779823628.090149,-3010026,-3934533,164960744,-136678,-78209,179110,-0.18016523115783695,-0.2355016360134888,9.873732178635255,-0.03159907099914551,-0.01808141576385498,0.04140907539367676,61,fe52fe00,0.0,0.0,0.0,0.0,0.0,0.0
2026-05-26 15:27:08.090890,1779823628.090890,-2650292,-4146475,164055022,-57077,-179722,178361,-0.15863333765747073,-0.24818743321990971,9.819520150734254,-0.013195833824157715,-0.041550565841674804,0.04123591143035889,61,fe52fe00,0.0,0.0,0.0,0.0,0.0,0.0
2026-05-26 15:27:08.092241,1779823628.092241,-2650292,-4146475,164055022,-57077,-179722,178361,-0.15863333765747073,-0.24818743321990971,9.819520150734254,-0.013195833824157715,-0.041550565841674804,0.04123591143035889,61,fe52fe00,0.0,0.0,0.0,0.0,0.0,0.0
2026-05-26 15:27:08.093003,1779823628.093003,-2238471,-4433209,163242611,52496,-47367,179954,-0.13398377461029054,-0.26534990869049074,9.770893256611025,0.012136736206054688,-0.010950944526672363,0.04160420274353027,61,fe52fe00,0.0,0.0,0.0,0.0,0.0,0.0
2026-05-26 15:27:08.094310,1779823628.094310,-2238471,-4433209,163242611,52496,-47367,179954,-0.13398377461029054,-0.26534990869049074,9.770893256611025,0.012136736206054688,-0.010950944526672363,0.04160420274353027,61,fe52fe00,0.0,0.0,0.0,0.0,0.0,0.0
2026-05-26 15:27:08.095668,1779823628.095668,-2238471,-4433209,163242611,52496,-47367,179954,-0.13398377461029054,-0.26534990869049074,9.770893256611025,0.012136736206054688,-0.010950944526672363,0.04160420274353027,61,fe52fe00,0.0,0.0,0.0,0.0,0.0,0.0
2026-05-26 15:27:08.096455,1779823628.096455,-2286333,-4383963,163834899,46311,62318,178721,-0.13684855660675052,-0.2624022873165894,9.80634467943329,0.010706804145812989,0.014407519180297852,0.04131914110565186,61,fe52fe00,0.0,0.0,0.0,0.0,0.0,0.0
2026-05-26 15:27:08.097246,1779823628.097246,-2512484,-4248093,164922714,17744,34532,184416,-0.1503848340979004,-0.25426978282745366,9.871455891406862,0.004102298217773437,0.007983575408935547,0.042635788330078125,61,fe52fe00,0.0,0.0,0.0,0.0,0.0,0.0
2026-05-26 15:27:08.098601,1779823628.098601,-2512484,-4248093,164922714,17744,34532,184416,-0.1503848340979004,-0.25426978282745366,9.871455891406862,0.004102298217773437,0.007983575408935547,0.042635788330078125,61,fe52fe00,0.0,0.0,0.0,0.0,0.0,0.0
2026-05-26 15:27:08.099388,1779823628.099388,-2844400,-4154512,164574312,-10106,-66371,181638,-0.17025168005371097,-0.2486684881884766,9.850602275236819,-0.0023364419403076172,-0.015344546607971191,0.041993532669067385,61,fe52fe00,0.0,0.0,0.0,0.0,0.0,0.0
2026-05-26 15:27:08.100764,1779823628.100764,-2844400,-4154512,164574312,-10106,-66371,181638,-0.17025168005371097,-0.2486684881884766,9.850602275236819,-0.0023364419403076172,-0.015344546607971191,0.041993532669067385,61,fe52fe00,0.0,0.0,0.0,0.0,0.0,0.0
2026-05-26 15:27:08.101514,1779823628.101514,-2742349,-4248352,164065081,168305,-88851,162089,-0.16414341321319584,-0.25428528528320316,9.820122232596741,0.038911029167175294,-0.02054177744293213,0.0374739301071167,61,fe52fe00,0.0,0.0,0.0,0.0,0.0,0.0
2026-05-26 15:27:08.102844,1779823628.102844,-2742349,-4248352,164065081,168305,-88851,162089,-0.16414341321319584,-0.25428528528320316,9.820122232596741,0.038911029167175294,-0.02054177744293213,0.0374739301071167,61,fe52fe00,0.0,0.0,0.0,0.0,0.0,0.0
2026-05-26 15:27:08.103619,1779823628.103619,-2542975,-4022445,164187386,202526,-99642,148167,-0.15220987416839601,-0.24076361242218022,9.827442803447877,0.046822703384399415,-0.023036586959838866,0.034255253608703615,61,fe52fe00,0.0,0.0,0.0,0.0,0.0,0.0
2026-05-26 15:27:08.104894,1779823628.104894,-2542975,-4022445,164187386,202526,-99642,148167,-0.15220987416839601,-0.24076361242218022,9.827442803447877,0.046822703384399415,-0.023036586959838866,0.034255253608703615,61,fe52fe00,0.0,0.0,0.0,0.0,0.0,0.0
2026-05-26 15:27:08.105627,1779823628.105627,-1981473,-3917607,164310152,208040,-40169,117407,-0.11860114865386964,-0.2344885295809937,9.834790967473145,0.048097504577636715,-0.00928681340789795,0.027143740242004395,61,fe52fe00,0.0,0.0,0.0,0.0,0.0,0.0
2026-05-26 15:27:08.106971,1779823628.106971,-1981473,-3917607,164310152,208040,-40169,117407,-0.11860114865386964,-0.2344885295809937,9.834790967473145,0.048097504577636715,-0.00928681340789795,0.027143740242004395,61,fe52fe00,0.0,0.0,0.0,0.0,0.0,0.0
2026-05-26 15:27:08.107695,1779823628.107695,-2124786,-3808401,163895009,149037,30625,104713,-0.12717915421691897,-0.2279519999185181,9.80994256597809,0.03445639199066162,0.007080302238464355,0.024208969413757324,61,fe51fe00,0.0,0.0,0.0,0.0,0.0,0.0
2026-05-26 15:27:08.108987,1779823628.108987,-2124786,-3808401,163895009,149037,30625,104713,-0.12717915421691897,-0.2279519999185181,9.80994256597809,0.03445639199066162,0.007080302238464355,0.024208969413757324,61,fe51fe00,0.0,0.0,0.0,0.0,0.0,0.0
2026-05-26 15:27:08.109884,1779823628.109884,-2181883,-3724417,164150481,137391,36580,85448,-0.1305966975216675,-0.22292513411285403,9.825233853141176,0.031763911994934085,0.008457059783935546,0.019755025817871093,61,fe52fe00,0.0,0.0,0.0,0.0,0.0,0.0
2026-05-26 15:27:08.111340,1779823628.111340,-2181883,-3724417,164150481,137391,36580,85448,-0.1305966975216675,-0.22292513411285403,9.825233853141176,0.031763911994934085,0.008457059783935546,0.019755025817871093,61,fe52fe00,0.0,0.0,0.0,0.0,0.0,0.0
2026-05-26 15:27:08.112153,1779823628.112153,-2783690,-3540992,164493801,175185,117305,74385,-0.1666178804840088,-0.21194622312500003,9.845783285990297,0.04050164073944092,0.027120158500671388,0.017197331657409668,61,fe52fe00,0.0,0.0,0.0,0.0,0.0,0.0
2026-05-26 15:27:08.113513,1779823628.113513,-2783690,-3540992,164493801,175185,117305,74385,-0.1666178804840088,-0.21194622312500003,9.845783285990297,0.04050164073944092,0.027120158500671388,0.017197331657409668,61,fe52fe00,0.0,0.0,0.0,0.0,0.0,0.0
2026-05-26 15:27:08.114327,1779823628.114327,-2938574,-3423993,165016908,133592,-100163,78873,-0.17588846873229982,-0.2049432431240845,9.877093877186281,0.03088560772705078,-0.02315703879547119,0.01823492827606201,61,fe52fe00,0.0,0.0,0.0,0.0,0.0,0.0
2026-05-26 15:27:08.115769,1779823628.115769,-2938574,-3423993,165016908,133592,-100163,78873,-0.17588846873229982,-0.2049432431240845,9.877093877186281,0.03088560772705078,-0.02315703879547119,0.01823492827606201,61,fe52fe00,0.0,0.0,0.0,0.0,0.0,0.0
2026-05-26 15:27:08.116568,1779823628.116568,-2509690,-3597145,164359656,81034,-145250,63217,-0.1502175991119385,-0.21530726327056887,9.837754031447755,0.018734537521362303,-0.03358086204528809,0.014615362174987793,61,fe52fe00,0.0,0.0,0.0,0.0,0.0,0.0
2026-05-26 15:27:08.117977,1779823628.117977,-2509690,-3597145,164359656,81034,-145250,63217,-0.1502175991119385,-0.21530726327056887,9.837754031447755,0.018734537521362303,-0.03358086204528809,0.014615362174987793,61,fe52fe00,0.0,0.0,0.0,0.0,0.0,0.0
2026-05-26 15:27:08.118725,1779823628.118725,-1981286,-3840034,163274136,105922,-32460,50285,-0.11858995576110841,-0.22984539444641117,9.772780186794435,0.024488482406616212,-0.007504542388916016,0.01162556728363037,61,fe51fe00,0.0,0.0,0.0,0.0,0.0,0.0
2026-05-26 15:27:08.120096,1779823628.120096,-1981286,-3840034,163274136,105922,-32460,50285,-0.11858995576110841,-0.22984539444641117,9.772780186794435,0.024488482406616212,-0.007504542388916016,0.01162556728363037,61,fe51fe00,0.0,0.0,0.0,0.0,0.0,0.0
2026-05-26 15:27:08.120869,1779823628.120869,-2131487,-3894807,163916229,155862,142585,6499,-0.12758024285003663,-0.23312383463470462,9.811212689958802,0.036034287918090824,0.032964731254577634,0.0015025268325805665,61,fe51fe00,0.0,0.0,0.0,0.0,0.0,0.0
2026-05-26 15:27:08.122291,1779823628.122291,-2131487,-3894807,163916229,155862,142585,6499,-0.12758024285003663,-0.23312383463470462,9.811212689958802,0.036034287918090824,0.032964731254577634,0.0015025268325805665,61,fe51fe00,0.0,0.0,0.0,0.0,0.0,0.0
2026-05-26 15:27:08.123136,1779823628.123136,-2556006,-3598564,165236752,94509,138280,5185,-0.15298984521423342,-0.21539219757446293,9.890252648930666,0.02184987050628662,0.03196944305419922,0.0011987385177612306,61,fe51fe00,0.0,0.0,0.0,0.0,0.0,0.0
2026-05-26 15:27:08.124614,1779823628.124614,-2556006,-3598564,165236752,94509,138280,5185,-0.15298984521423342,-0.21539219757446293,9.890252648930666,0.02184987050628662,0.03196944305419922,0.0011987385177612306,61,fe51fe00,0.0,0.0,0.0,0.0,0.0,0.0
2026-05-26 15:27:08.125401,1779823628.125401,-2916069,-3405294,164920347,31987,30558,-20247,-0.17454143102325442,-0.20382401370300296,9.871314214523622,0.007395187843322754,0.007064812271118164,-0.004680975654602051,61,fe51fe00,0.0,0.0,0.0,0.0,0.0,0.0
2026-05-26 15:27:08.126908,1779823628.126908,-2916069,-3405294,164920347,31987,30558,-20247,-0.17454143102325442,-0.20382401370300296,9.871314214523622,0.007395187843322754,0.007064812271118164,-0.004680975654602051,61,fe51fe00,0.0,0.0,0.0,0.0,0.0,0.0
2026-05-26 15:27:08.127799,1779823628.127799,-2750905,-3378606,163986670,54464,-47161,-39493,-0.16465553294830323,-0.2022266023553467,9.81542893893738,0.01259172509765625,-0.010903318656921387,-0.009130526573181152,61,fe51fe00,0.0,0.0,0.0,0.0,0.0,0.0
2026-05-26 15:27:08.129630,1779823628.129630,-2750905,-3378606,163986670,54464,-47161,-39493,-0.16465553294830323,-0.2022266023553467,9.81542893893738,0.01259172509765625,-0.010903318656921387,-0.009130526573181152,61,fe51fe00,0.0,0.0,0.0,0.0,0.0,0.0
2026-05-26 15:27:08.130691,1779823628.130691,-2287612,-3471745,163627389,62607,71312,-63471,-0.136925111204834,-0.20780144106597903,9.793924159770814,0.014474334114074706,0.01648687390136719,-0.014674085334777832,61,fe51fe00,0.0,0.0,0.0,0.0,0.0,0.0
2026-05-26 15:27:08.132319,1779823628.132319,-2287612,-3471745,163627389,62607,71312,-63471,-0.136925111204834,-0.20780144106597903,9.793924159770814,0.014474334114074706,0.01648687390136719,-0.014674085334777832,61,fe51fe00,0.0,0.0,0.0,0.0,0.0,0.0
2026-05-26 15:27:08.133261,1779823628.133261,-2504820,-3287765,164142396,64605,212868,-70638,-0.14992610505981446,-0.19678931053009036,9.824749925130616,0.014936258811950683,0.04921370700073242,-0.01633104945373535,61,fe51fe00,0.0,0.0,0.0,0.0,0.0,0.0
2026-05-26 15:27:08.134905,1779823628.134905,-2504820,-3287765,164142396,64605,212868,-70638,-0.14992610505981446,-0.19678931053009036,9.824749925130616,0.014936258811950683,0.04921370700073242,-0.01633104945373535,61,fe51fe00,0.0,0.0,0.0,0.0,0.0,0.0
2026-05-26 15:27:08.135834,1779823628.135834,-2833077,-3244205,164978534,-24249,123230,-37879,-0.16957394141876223,-0.1941820249221802,9.87479699982361,-0.005606212211608887,0.028489980239868165,-0.008757380195617675,61,fe51fe00,0.0,0.0,0.0,0.0,0.0,0.0
2026-05-26 15:27:08.137341,1779823628.137341,-2833077,-3244205,164978534,-24249,123230,-37879,-0.16957394141876223,-0.1941820249221802,9.87479699982361,-0.005606212211608887,0.028489980239868165,-0.008757380195617675,61,fe51fe00,0.0,0.0,0.0,0.0,0.0,0.0
2026-05-26 15:27:08.138244,1779823628.138244,-3057817,-3302986,164558194,-40221,28309,-18863,-0.18302576344635013,-0.19770036411682132,9.849637531677859,-0.009298835472106933,0.00654485799407959,-0.004361003791809082,61,fe50fe00,0.0,0.0,0.0,0.0,0.0,0.0
2026-05-26 15:27:08.139872,1779823628.139872,-3057817,-3302986,164558194,-40221,28309,-18863,-0.18302576344635013,-0.19770036411682132,9.849637531677859,-0.009298835472106933,0.00654485799407959,-0.004361003791809082,61,fe50fe00,0.0,0.0,0.0,0.0,0.0,0.0
2026-05-26 15:27:08.140688,1779823628.140688,-2834879,-3585962,163853520,79927,-10683,2734,-0.16968180020355228,-0.2146379043414307,9.807459240161133,0.018478606269836426,-0.0024698406143188476,0.0006320831451416016,61,fe51fe00,0.0,0.0,0.0,0.0,0.0,0.0
2026-05-26 15:27:08.142296,1779823628.142296,-2834879,-3585962,163853520,79927,-10683,2734,-0.16968180020355228,-0.2146379043414307,9.807459240161133,0.018478606269836426,-0.0024698406143188476,0.0006320831451416016,61,fe51fe00,0.0,0.0,0.0,0.0,0.0,0.0
2026-05-26 15:27:08.143203,1779823628.143203,-2531306,-3662411,164127472,100834,-28161,681,-0.15151142568908693,-0.21921376240936283,9.823856648491212,0.023312169662475585,-0.006510641349792481,0.00015744280242919922,61,fe50fe00,0.0,0.0,0.0,0.0,0.0,0.0
2026-05-26 15:27:08.144924,1779823628.144924,-2531306,-3662411,164127472,100834,-28161,681,-0.15151142568908693,-0.21921376240936283,9.823856648491212,0.023312169662475585,-0.006510641349792481,0.00015744280242919922,61,fe50fe00,0.0,0.0,0.0,0.0,0.0,0.0
2026-05-26 15:27:08.145734,1779823628.145734,-2204282,-3675023,164405453,62078,28765,11511,-0.1319373905963135,-0.2199686541928101,9.84049521278351,0.01435203273010254,0.006650282249450684,0.002661268867492676,61,fe50fe00,0.0,0.0,0.0,0.0,0.0,0.0
2026-05-26 15:27:08.147262,1779823628.147262,-2204282,-3675023,164405453,62078,28765,11511,-0.1319373905963135,-0.2199686541928101,9.84049521278351,0.01435203273010254,0.006650282249450684,0.002661268867492676,61,fe50fe00,0.0,0.0,0.0,0.0,0.0,0.0
2026-05-26 15:27:08.148228,1779823628.148228,-2477631,-3615187,164104181,-50644,56772,26152,-0.14829870633636477,-0.21638716792938237,9.822462564719546,-0.01170856576538086,0.013125319793701172,0.006046173522949219,61,fe50fe00,0.0,0.0,0.0,0.0,0.0,0.0
2026-05-26 15:27:08.149856,1779823628.149856,-2477631,-3615187,164104181,-50644,56772,26152,-0.14829870633636477,-0.21638716792938237,9.822462564719546,-0.01170856576538086,0.013125319793701172,0.006046173522949219,61,fe50fe00,0.0,0.0,0.0,0.0,0.0,0.0
2026-05-26 15:27:08.150695,1779823628.150695,-2670263,-3620228,164290309,12660,49541,35115,-0.15982870269134525,-0.21668889719360354,9.833603263884584,0.0029269102478027345,0.011453559288024903,0.00811836124420166,61,fe50fe00,0.0,0.0,0.0,0.0,0.0,0.0
2026-05-26 15:27:08.152170,1779823628.152170,-2670263,-3620228,164290309,12660,49541,35115,-0.15982870269134525,-0.21668889719360354,9.833603263884584,0.0029269102478027345,0.011453559288024903,0.00811836124420166,61,fe50fe00,0.0,0.0,0.0,0.0,0.0,0.0
2026-05-26 15:27:08.152969,1779823628.152969,-3042931,-3518818,164180315,14092,49549,46848,-0.18213476129852296,-0.21061899743469242,9.827019568449403,0.0032579794006347656,0.011455408836364747,0.010830955078125,61,fe50fe00,0.0,0.0,0.0,0.0,0.0,0.0
2026-05-26 15:27:08.154492,1779823628.154492,-3042931,-3518818,164180315,14092,49549,46848,-0.18213476129852296,-0.21061899743469242,9.827019568449403,0.0032579794006347656,0.011455408836364747,0.010830955078125,61,fe50fe00,0.0,0.0,0.0,0.0,0.0,0.0
2026-05-26 15:27:08.155312,1779823628.155312,-2975664,-3453965,164400954,58346,-21645,71799,-0.1781084922216797,-0.20673721842803958,9.840225924951783,0.013489218429565429,-0.0050041842269897465,0.016599465156555176,61,fe50fe00,0.0,0.0,0.0,0.0,0.0,0.0
2026-05-26 15:27:08.156962,1779823628.156962,-2975664,-3453965,164400954,58346,-21645,71799,-0.1781084922216797,-0.20673721842803958,9.840225924951783,0.013489218429565429,-0.0050041842269897465,0.016599465156555176,61,fe50fe00,0.0,0.0,0.0,0.0,0.0,0.0
2026-05-26 15:27:08.158215,1779823628.158215,-2721483,-3472659,164351655,-74204,-106623,122642,-0.16289447791717532,-0.2078561485739136,9.837275131260682,-0.017155485626220702,-0.02465054907989502,0.028354038436889648,61,fe50fe00,0.0,0.0,0.0,0.0,0.0,0.0
2026-05-26 15:27:08.159850,1779823628.159850,-2721483,-3472659,164351655,-74204,-106623,122642,-0.16289447791717532,-0.2078561485739136,9.837275131260682,-0.017155485626220702,-0.02465054907989502,0.028354038436889648,61,fe50fe00,0.0,0.0,0.0,0.0,0.0,0.0
2026-05-26 15:27:08.160726,1779823628.160726,-2382723,-3690478,163839991,-55630,-81530,164497,-0.14261798405731202,-0.22089371385925297,9.806649461304628,-0.012861296768188476,-0.01884920951843262,0.03803064415740967,61,fe50fe00,0.0,0.0,0.0,0.0,0.0,0.0
2026-05-26 15:27:08.162544,1779823628.162544,-2382723,-3690478,163839991,-55630,-81530,164497,-0.14261798405731202,-0.22089371385925297,9.806649461304628,-0.012861296768188476,-0.01884920951843262,0.03803064415740967,61,fe50fe00,0.0,0.0,0.0,0.0,0.0,0.0
2026-05-26 15:27:08.163573,1779823628.163573,-2682918,-3884240,163824534,-53508,-3396,190015,-0.16058616824157718,-0.23249134641113284,9.805724281928102,-0.012370704071044921,-0.0007851332702636718,0.04393024097442627,61,fe50fe00,0.0,0.0,0.0,0.0,0.0,0.0
2026-05-26 15:27:08.165400,1779823628.165400,-2682918,-3884240,163824534,-53508,-3396,190015,-0.16058616824157718,-0.23249134641113284,9.805724281928102,-0.012370704071044921,-0.0007851332702636718,0.04393024097442627,61,fe50fe00,0.0,0.0,0.0,0.0,0.0,0.0
2026-05-26 15:27:08.166433,1779823628.166433,-2808671,-3865800,164725939,-80838,-43237,193747,-0.1681131192758179,-0.2313876194458008,9.859677915614931,-0.018689223587036133,-0.009996115196228027,0.04479305527496338,61,fe50fe00,0.0,0.0,0.0,0.0,0.0,0.0
2026-05-26 15:27:08.168049,1779823628.168049,-2808671,-3865800,164725939,-80838,-43237,193747,-0.1681131192758179,-0.2313876194458008,9.859677915614931,-0.018689223587036133,-0.009996115196228027,0.04479305527496338,61,fe50fe00,0.0,0.0,0.0,0.0,0.0,0.0
2026-05-26 15:27:08.169753,1779823628.169753,-2808671,-3865800,164725939,-80838,-43237,193747,-0.1681131192758179,-0.2313876194458008,9.859677915614931,-0.018689223587036133,-0.009996115196228027,0.04479305527496338,61,fe50fe00,0.0,0.0,0.0,0.0,0.0,0.0
2026-05-26 15:27:08.170686,1779823628.170686,-2860464,-3771014,164653269,-104023,-66203,202442,-0.1712131914404297,-0.22571419948181157,9.855328249748842,-0.0240494458694458,-0.015305706092834473,0.046803283126831054,61,fe50fe00,0.0,0.0,0.0,0.0,0.0,0.0
2026-05-26 15:27:08.171786,1779823628.171786,-2636601,-3815779,164167647,-93690,-157897,188946,-0.15781386228424074,-0.2283936104147339,9.826261324783632,-0.021660522994995116,-0.03650476677703857,0.043683095077514646,61,fe50fe00,0.0,0.0,0.0,0.0,0.0,0.0
2026-05-26 15:27:08.173420,1779823628.173420,-2636601,-3815779,164167647,-93690,-157897,188946,-0.15781386228424074,-0.2283936104147339,9.826261324783632,-0.021660522994995116,-0.03650476677703857,0.043683095077514646,61,fe50fe00,0.0,0.0,0.0,0.0,0.0,0.0
2026-05-26 15:27:08.174361,1779823628.174361,-2333804,-3860359,163868557,-75797,-81593,175217,-0.13968993528198245,-0.23106194816497805,9.808359280420229,-0.01752377693939209,-0.018863774711608886,0.04050903893280029,61,fe50fe00,0.0,0.0,0.0,0.0,0.0,0.0
2026-05-26 15:27:08.175854,1779823628.175854,-2333804,-3860359,163868557,-75797,-81593,175217,-0.13968993528198245,-0.23106194816497805,9.808359280420229,-0.01752377693939209,-0.018863774711608886,0.04050903893280029,61,fe50fe00,0.0,0.0,0.0,0.0,0.0,0.0
2026-05-26 15:27:08.176687,1779823628.176687,-2482624,-3769480,163994352,-60012,43543,166127,-0.14859756255859377,-0.22562238184814457,9.815888745366212,-0.013874386871337891,0.010066860420227051,0.03840748963165283,61,fe50fe00,0.0,0.0,0.0,0.0,0.0,0.0
2026-05-26 15:27:08.178227,1779823628.178227,-2482624,-3769480,163994352,-60012,43543,166127,-0.14859756255859377,-0.22562238184814457,9.815888745366212,-0.013874386871337891,0.010066860420227051,0.03840748963165283,61,fe50fe00,0.0,0.0,0.0,0.0,0.0,0.0
2026-05-26 15:27:08.179079,1779823628.179079,-2815331,-3706550,164570754,-105774,43816,180580,-0.1685117538522339,-0.22185570408630373,9.850389310999146,-0.024454265762329102,0.010129976257324218,0.04174892990112305,61,fe4ffe00,0.0,0.0,0.0,0.0,0.0,0.0
2026-05-26 15:27:08.180688,1779823628.180688,-2815331,-3706550,164570754,-105774,43816,180580,-0.1685117538522339,-0.22185570408630373,9.850389310999146,-0.024454265762329102,0.010129976257324218,0.04174892990112305,61,fe4ffe00,0.0,0.0,0.0,0.0,0.0,0.0
2026-05-26 15:27:08.181482,1779823628.181482,-2677253,-3683002,164635684,-128159,-53881,176975,-0.16024708943145755,-0.22044623756896975,9.854275698843995,-0.029629533210754396,-0.012456939262390138,0.040915477180480955,61,fe4ffe00,0.0,0.0,0.0,0.0,0.0,0.0
2026-05-26 15:27:08.182843,1779823628.182843,-2677253,-3683002,164635684,-128159,-53881,176975,-0.16024708943145755,-0.22044623756896975,9.854275698843995,-0.029629533210754396,-0.012456939262390138,0.040915477180480955,61,fe4ffe00,0.0,0.0,0.0,0.0,0.0,0.0
2026-05-26 15:27:08.183619,1779823628.183619,-2518915,-3906523,164058835,-68292,-16529,166673,-0.15076976186981203,-0.2338250963009644,9.819748378007509,-0.01578866940307617,-0.003821398063659668,0.03853372130584717,61,fe4ffe00,0.0,0.0,0.0,0.0,0.0,0.0
2026-05-26 15:27:08.184916,1779823628.184916,-2518915,-3906523,164058835,-68292,-16529,166673,-0.15076976186981203,-0.2338250963009644,9.819748378007509,-0.01578866940307617,-0.003821398063659668,0.03853372130584717,61,fe4ffe00,0.0,0.0,0.0,0.0,0.0,0.0
2026-05-26 15:27:08.185680,1779823628.185680,-2379615,-4009427,164280042,-44360,-22053,156527,-0.1424319545883179,-0.23998441949188234,9.832988732173463,-0.010255745544433594,-0.0050985111923217774,0.03618803162384033,61,fe4ffe00,0.0,0.0,0.0,0.0,0.0,0.0
2026-05-26 15:27:08.186952,1779823628.186952,-2379615,-4009427,164280042,-44360,-22053,156527,-0.1424319545883179,-0.23998441949188234,9.832988732173463,-0.010255745544433594,-0.0050985111923217774,0.03618803162384033,61,fe4ffe00,0.0,0.0,0.0,0.0,0.0,0.0
2026-05-26 15:27:08.187671,1779823628.187671,-2261181,-4065255,164704459,-73394,37992,159269,-0.13534308260284425,-0.24332600674896243,9.858392229323426,-0.016968218856811525,0.00878350506591797,0.03682196431732178,61,fe4ffe00,0.0,0.0,0.0,0.0,0.0,0.0
2026-05-26 15:27:08.188954,1779823628.188954,-2261181,-4065255,164704459,-73394,37992,159269,-0.13534308260284425,-0.24332600674896243,9.858392229323426,-0.016968218856811525,0.00878350506591797,0.03682196431732178,61,fe4ffe00,0.0,0.0,0.0,0.0,0.0,0.0
