sys_datetime,unix_timestamp,raw_accel_x_lsb,raw_accel_y_lsb,raw_accel_z_lsb,raw_gyro_x_lsb,raw_gyro_y_lsb,raw_gyro_z_lsb,imu_type,imu_status_hex,veh_lat_acc_ms2,veh_long_acc_ms2,veh_vert_acc_ms2,veh_pitch_rate_degs,veh_roll_rate_degs,veh_yaw_rate_degs
2026-05-25 09:32:11.737736,1779715931.737736,-907064,-2481542,164342634,14711,75657,14878,61,f0fefe00,,,,,,
2026-05-25 09:32:11.746314,1779715931.746314,-907064,-2481542,164342634,14711,75657,14878,61,f0fefe00,0.0,0.0,0.0,0.0,0.0,0.0
2026-05-25 09:32:11.752677,1779715931.752677,-968678,-2507462,164386257,12433,81139,13637,61,f0fefe00,0.0,0.0,0.0,0.0,0.0,0.0
2026-05-25 09:32:11.762802,1779715931.762802,-968678,-2507462,164386257,12433,81139,13637,61,f0fefe00,0.0,0.0,0.0,0.0,0.0,0.0
2026-05-25 09:32:11.777145,1779715931.777145,-932298,-2458013,164445555,5215,68752,5481,61,f0fffe00,0.0,0.0,0.0,0.0,0.0,0.0
2026-05-25 09:32:11.785268,1779715931.785268,-932298,-2458013,164445555,5215,68752,5481,61,f0fffe00,0.0,0.0,0.0,0.0,0.0,0.0
2026-05-25 09:32:11.790973,1779715931.790973,-962077,-2496325,164413560,20998,81876,8258,61,f0fffe00,0.0,0.0,0.0,0.0,0.0,0.0
2026-05-25 09:32:11.798496,1779715931.798496,-962077,-2496325,164413560,20998,81876,8258,61,f0fffe00,0.0,0.0,0.0,0.0,0.0,0.0
2026-05-25 09:32:11.805318,1779715931.805318,-968657,-2499549,164351690,20417,58943,-14421,61,f0fefe00,0.0,0.0,0.0,0.0,0.0,0.0
2026-05-25 09:32:11.814498,1779715931.814498,-968657,-2499549,164351690,20417,58943,-14421,61,f0fefe00,0.0,0.0,0.0,0.0,0.0,0.0
2026-05-25 09:32:11.820290,1779715931.820290,-969579,-2522210,164321079,28975,61273,-1975,61,f0fefe00,0.0,0.0,0.0,0.0,0.0,0.0
2026-05-25 09:32:11.827708,1779715931.827708,-969579,-2522210,164321079,28975,61273,-1975,61,f0fefe00,0.0,0.0,0.0,0.0,0.0,0.0
2026-05-25 09:32:11.834029,1779715931.834029,-993246,-2507288,164310956,34362,27253,19443,61,f0fffe00,0.0,0.0,0.0,0.0,0.0,0.0
2026-05-25 09:32:11.841560,1779715931.841560,-993246,-2507288,164310956,34362,27253,19443,61,f0fffe00,0.0,0.0,0.0,0.0,0.0,0.0
2026-05-25 09:32:11.848363,1779715931.848363,-971106,-2509148,164365719,53127,38216,25796,61,f0fffe00,0.0,0.0,0.0,0.0,0.0,0.0
2026-05-25 09:32:11.856718,1779715931.856718,-971106,-2509148,164365719,53127,38216,25796,61,f0fffe00,0.0,0.0,0.0,0.0,0.0,0.0
2026-05-25 09:32:11.862453,1779715931.862453,-1023166,-2524058,164393276,65809,20438,29082,61,f0fffe00,0.0,0.0,0.0,0.0,0.0,0.0
2026-05-25 09:32:11.869717,1779715931.869717,-1023166,-2524058,164393276,65809,20438,29082,61,f0fffe00,0.0,0.0,0.0,0.0,0.0,0.0
2026-05-25 09:32:11.875797,1779715931.875797,-1034873,-2548557,164405818,54221,27877,26201,61,f0fffe00,0.0,0.0,0.0,0.0,0.0,0.0
2026-05-25 09:32:11.883222,1779715931.883222,-1034873,-2548557,164405818,54221,27877,26201,61,f0fffe00,0.0,0.0,0.0,0.0,0.0,0.0
2026-05-25 09:32:11.889143,1779715931.889143,-1080959,-2563042,164398762,45455,20253,19980,61,f0fffe00,0.0,0.0,0.0,0.0,0.0,0.0
2026-05-25 09:32:11.897982,1779715931.897982,-1080959,-2563042,164398762,45455,20253,19980,61,f0fffe00,0.0,0.0,0.0,0.0,0.0,0.0
2026-05-25 09:32:11.903702,1779715931.903702,-1060579,-2626006,164380994,31913,2607,9224,61,f0fefe00,0.0,0.0,0.0,0.0,0.0,0.0
2026-05-25 09:32:11.910917,1779715931.910917,-1060579,-2626006,164380994,31913,2607,9224,61,f0fefe00,0.0,0.0,0.0,0.0,0.0,0.0
2026-05-25 09:32:11.916588,1779715931.916588,-1024898,-2622207,164395851,37112,3638,1123,61,f0fefe00,0.0,0.0,0.0,0.0,0.0,0.0
2026-05-25 09:32:11.923786,1779715931.923786,-1024898,-2622207,164395851,37112,3638,1123,61,f0fefe00,0.0,0.0,0.0,0.0,0.0,0.0
2026-05-25 09:32:11.929932,1779715931.929932,-1000381,-2582878,164369737,30781,2438,-5255,61,f0fefe00,0.0,0.0,0.0,0.0,0.0,0.0
2026-05-25 09:32:11.937299,1779715931.937299,-1000381,-2582878,164369737,30781,2438,-5255,61,f0fefe00,0.0,0.0,0.0,0.0,0.0,0.0
2026-05-25 09:32:11.943623,1779715931.943623,-950560,-2532683,164340506,56272,24895,4051,61,f0fefe00,0.0,0.0,0.0,0.0,0.0,0.0
2026-05-25 09:32:11.951562,1779715931.951562,-950560,-2532683,164340506,56272,24895,4051,61,f0fefe00,0.0,0.0,0.0,0.0,0.0,0.0
2026-05-25 09:32:11.958958,1779715931.958958,-964097,-2520327,164341102,56127,25006,1361,61,f0fefe00,0.0,0.0,0.0,0.0,0.0,0.0
2026-05-25 09:32:11.966463,1779715931.966463,-964097,-2520327,164341102,56127,25006,1361,61,f0fefe00,0.0,0.0,0.0,0.0,0.0,0.0
2026-05-25 09:32:11.972128,1779715931.972128,-957012,-2491576,164289997,44071,19504,-2033,61,f0fefe00,0.0,0.0,0.0,0.0,0.0,0.0
2026-05-25 09:32:11.979561,1779715931.979561,-957012,-2491576,164289997,44071,19504,-2033,61,f0fefe00,0.0,0.0,0.0,0.0,0.0,0.0
2026-05-25 09:32:11.985459,1779715931.985459,-963710,-2501143,164374966,47585,55925,-21358,61,f0fefe00,0.0,0.0,0.0,0.0,0.0,0.0
2026-05-25 09:32:11.992710,1779715931.992710,-963710,-2501143,164374966,47585,55925,-21358,61,f0fefe00,0.0,0.0,0.0,0.0,0.0,0.0
2026-05-25 09:32:11.998606,1779715931.998606,-870971,-2443503,164316958,43505,76898,-11400,61,f0fefe00,0.0,0.0,0.0,0.0,0.0,0.0
2026-05-25 09:32:12.005886,1779715932.005886,-870971,-2443503,164316958,43505,76898,-11400,61,f0fefe00,0.0,0.0,0.0,0.0,0.0,0.0
2026-05-25 09:32:12.011599,1779715932.011599,-886080,-2419733,164433607,57280,94171,1434,61,f0fefe00,0.0,0.0,0.0,0.0,0.0,0.0
2026-05-25 09:32:12.018980,1779715932.018980,-886080,-2419733,164433607,57280,94171,1434,61,f0fefe00,0.0,0.0,0.0,0.0,0.0,0.0
2026-05-25 09:32:12.024792,1779715932.024792,-976649,-2336566,164404413,28808,59476,25996,61,f0fefe00,0.0,0.0,0.0,0.0,0.0,0.0
2026-05-25 09:32:12.032097,1779715932.032097,-976649,-2336566,164404413,28808,59476,25996,61,f0fefe00,0.0,0.0,0.0,0.0,0.0,0.0
2026-05-25 09:32:12.038007,1779715932.038007,-1121361,-2358391,164442960,37398,42667,48604,61,f0fefe00,0.0,0.0,0.0,0.0,0.0,0.0
2026-05-25 09:32:12.045409,1779715932.045409,-1121361,-2358391,164442960,37398,42667,48604,61,f0fefe00,0.0,0.0,0.0,0.0,0.0,0.0
2026-05-25 09:32:12.051046,1779715932.051046,-1206328,-2472193,164407851,49005,-8947,40519,61,f0fefe00,0.0,0.0,0.0,0.0,0.0,0.0
2026-05-25 09:32:12.059339,1779715932.059339,-1206328,-2472193,164407851,49005,-8947,40519,61,f0fefe00,0.0,0.0,0.0,0.0,0.0,0.0
2026-05-25 09:32:12.065052,1779715932.065052,-1182974,-2571911,164406789,65647,-20039,15023,61,f0fefe00,0.0,0.0,0.0,0.0,0.0,0.0
2026-05-25 09:32:12.072412,1779715932.072412,-1182974,-2571911,164406789,65647,-20039,15023,61,f0fefe00,0.0,0.0,0.0,0.0,0.0,0.0
2026-05-25 09:32:12.078095,1779715932.078095,-1086280,-2619828,164382391,38835,-73236,-12457,61,f0fefe00,0.0,0.0,0.0,0.0,0.0,0.0
2026-05-25 09:32:12.085346,1779715932.085346,-1086280,-2619828,164382391,38835,-73236,-12457,61,f0fefe00,0.0,0.0,0.0,0.0,0.0,0.0
2026-05-25 09:32:12.091147,1779715932.091147,-940106,-2692146,164325864,7516,-81078,-28617,61,f0fefe00,0.0,0.0,0.0,0.0,0.0,0.0
2026-05-25 09:32:12.098454,1779715932.098454,-940106,-2692146,164325864,7516,-81078,-28617,61,f0fefe00,0.0,0.0,0.0,0.0,0.0,0.0
2026-05-25 09:32:12.104144,1779715932.104144,-828046,-2719241,164285388,15406,-74971,-33445,61,f0fefe00,0.0,0.0,0.0,0.0,0.0,0.0
2026-05-25 09:32:12.111405,1779715932.111405,-828046,-2719241,164285388,15406,-74971,-33445,61,f0fefe00,0.0,0.0,0.0,0.0,0.0,0.0
2026-05-25 09:32:12.117049,1779715932.117049,-744966,-2734985,164272649,50006,-19837,-19052,61,f0fefe00,0.0,0.0,0.0,0.0,0.0,0.0
2026-05-25 09:32:12.124308,1779715932.124308,-744966,-2734985,164272649,50006,-19837,-19052,61,f0fefe00,0.0,0.0,0.0,0.0,0.0,0.0
2026-05-25 09:32:12.129988,1779715932.129988,-764429,-2617517,164267461,60731,18677,7659,61,f0fefe00,0.0,0.0,0.0,0.0,0.0,0.0
2026-05-25 09:32:12.137526,1779715932.137526,-764429,-2617517,164267461,60731,18677,7659,61,f0fefe00,0.0,0.0,0.0,0.0,0.0,0.0
2026-05-25 09:32:12.143576,1779715932.143576,-852678,-2492011,164301737,56441,48440,25465,61,f0fefe00,0.0,0.0,0.0,0.0,0.0,0.0
2026-05-25 09:32:12.150903,1779715932.150903,-852678,-2492011,164301737,56441,48440,25465,61,f0fefe00,0.0,0.0,0.0,0.0,0.0,0.0
2026-05-25 09:32:12.156868,1779715932.156868,-1033364,-2389011,164352986,33072,61054,30586,61,f0fefe00,0.0,0.0,0.0,0.0,0.0,0.0
2026-05-25 09:32:12.166238,1779715932.166238,-1033364,-2389011,164352986,33072,61054,30586,61,f0fefe00,0.0,0.0,0.0,0.0,0.0,0.0
2026-05-25 09:32:12.171997,1779715932.171997,-1078712,-2327106,164382657,48713,43045,30950,61,f0fefe00,0.0,0.0,0.0,0.0,0.0,0.0
2026-05-25 09:32:12.179416,1779715932.179416,-1078712,-2327106,164382657,48713,43045,30950,61,f0fefe00,0.0,0.0,0.0,0.0,0.0,0.0
2026-05-25 09:32:12.185077,1779715932.185077,-1120687,-2336354,164382855,40600,4415,15720,61,f0fefe00,0.0,0.0,0.0,0.0,0.0,0.0
2026-05-25 09:32:12.192330,1779715932.192330,-1120687,-2336354,164382855,40600,4415,15720,61,f0fefe00,0.0,0.0,0.0,0.0,0.0,0.0
2026-05-25 09:32:12.197860,1779715932.197860,-1006808,-2379208,164330061,42215,-4714,2203,61,f0fefe00,0.0,0.0,0.0,0.0,0.0,0.0
2026-05-25 09:32:12.205261,1779715932.205261,-1006808,-2379208,164330061,42215,-4714,2203,61,f0fefe00,0.0,0.0,0.0,0.0,0.0,0.0
2026-05-25 09:32:12.210935,1779715932.210935,-899293,-2475485,164276447,18790,24460,-775,61,f0fefe00,0.0,0.0,0.0,0.0,0.0,0.0
2026-05-25 09:32:12.218363,1779715932.218363,-899293,-2475485,164276447,18790,24460,-775,61,f0fefe00,0.0,0.0,0.0,0.0,0.0,0.0
2026-05-25 09:32:12.225222,1779715932.225222,-756339,-2571405,164265251,8458,78311,9495,61,f0fefe00,0.0,0.0,0.0,0.0,0.0,0.0
2026-05-25 09:32:12.232457,1779715932.232457,-756339,-2571405,164265251,8458,78311,9495,61,f0fefe00,0.0,0.0,0.0,0.0,0.0,0.0
2026-05-25 09:32:12.238223,1779715932.238223,-688683,-2621537,164270571,20094,132016,12899,61,f0fefe00,0.0,0.0,0.0,0.0,0.0,0.0
2026-05-25 09:32:12.245425,1779715932.245425,-688683,-2621537,164270571,20094,132016,12899,61,f0fefe00,0.0,0.0,0.0,0.0,0.0,0.0
2026-05-25 09:32:12.251382,1779715932.251382,-763032,-2667304,164349054,2310,180891,6833,61,f0fefe00,0.0,0.0,0.0,0.0,0.0,0.0
2026-05-25 09:32:12.258514,1779715932.258514,-763032,-2667304,164349054,2310,180891,6833,61,f0fefe00,0.0,0.0,0.0,0.0,0.0,0.0
2026-05-25 09:32:12.264234,1779715932.264234,-880179,-2626672,164409629,30901,161174,-6471,61,f0fefe00,0.0,0.0,0.0,0.0,0.0,0.0
2026-05-25 09:32:12.295643,1779715932.295643,-880179,-2626672,164409629,30901,161174,-6471,61,f0fefe00,0.0,0.0,0.0,0.0,0.0,0.0
2026-05-25 09:32:12.315036,1779715932.315036,-1083652,-2631062,164501138,19209,130179,5235,61,f0fefe00,0.0,0.0,0.0,0.0,0.0,0.0
2026-05-25 09:32:12.322409,1779715932.322409,-1083652,-2631062,164501138,19209,130179,5235,61,f0fefe00,0.0,0.0,0.0,0.0,0.0,0.0
2026-05-25 09:32:12.332612,1779715932.332612,-1239889,-2558652,164445449,45485,47424,-8466,61,f0fefe00,0.0,0.0,0.0,0.0,0.0,0.0
2026-05-25 09:32:12.339842,1779715932.339842,-1239889,-2558652,164445449,45485,47424,-8466,61,f0fefe00,0.0,0.0,0.0,0.0,0.0,0.0
2026-05-25 09:32:12.345815,1779715932.345815,-1340168,-2505040,164487669,50435,-7825,8221,61,f0fefe00,0.0,0.0,0.0,0.0,0.0,0.0
2026-05-25 09:32:12.355667,1779715932.355667,-1340168,-2505040,164487669,50435,-7825,8221,61,f0fefe00,0.0,0.0,0.0,0.0,0.0,0.0
2026-05-25 09:32:12.361392,1779715932.361392,-1300795,-2430054,164430973,20299,-94431,9379,61,f0fefe00,0.0,0.0,0.0,0.0,0.0,0.0
2026-05-25 09:32:12.368523,1779715932.368523,-1300795,-2430054,164430973,20299,-94431,9379,61,f0fefe00,0.0,0.0,0.0,0.0,0.0,0.0
2026-05-25 09:32:12.374291,1779715932.374291,-1151858,-2466939,164464463,14248,-152729,33497,61,f0fefe00,0.0,0.0,0.0,0.0,0.0,0.0
2026-05-25 09:32:12.381866,1779715932.381866,-1151858,-2466939,164464463,14248,-152729,33497,61,f0fefe00,0.0,0.0,0.0,0.0,0.0,0.0
2026-05-25 09:32:12.387546,1779715932.387546,-932703,-2483664,164363310,25079,-178030,42843,61,f0fefe00,0.0,0.0,0.0,0.0,0.0,0.0
2026-05-25 09:32:12.395388,1779715932.395388,-932703,-2483664,164363310,25079,-178030,42843,61,f0fefe00,0.0,0.0,0.0,0.0,0.0,0.0
2026-05-25 09:32:12.401469,1779715932.401469,-727953,-2604863,164302380,44138,-151808,6702,61,f0fefe00,0.0,0.0,0.0,0.0,0.0,0.0
2026-05-25 09:32:12.408871,1779715932.408871,-727953,-2604863,164302380,44138,-151808,6702,61,f0fefe00,0.0,0.0,0.0,0.0,0.0,0.0
2026-05-25 09:32:12.415356,1779715932.415356,-670410,-2593662,164228430,63604,-82756,9836,61,f0fefe00,0.0,0.0,0.0,0.0,0.0,0.0
2026-05-25 09:32:12.423297,1779715932.423297,-670410,-2593662,164228430,63604,-82756,9836,61,f0fefe00,0.0,0.0,0.0,0.0,0.0,0.0
2026-05-25 09:32:12.428988,1779715932.428988,-636950,-2597336,164217724,69475,-13282,16148,61,f0fefe00,0.0,0.0,0.0,0.0,0.0,0.0
2026-05-25 09:32:12.437316,1779715932.437316,-636950,-2597336,164217724,69475,-13282,16148,61,f0fefe00,0.0,0.0,0.0,0.0,0.0,0.0
2026-05-25 09:32:12.443389,1779715932.443389,-797318,-2492657,164248825,35438,67204,49998,61,f0fefe00,0.0,0.0,0.0,0.0,0.0,0.0
2026-05-25 09:32:12.450648,1779715932.450648,-797318,-2492657,164248825,35438,67204,49998,61,f0fefe00,0.0,0.0,0.0,0.0,0.0,0.0
2026-05-25 09:32:12.457281,1779715932.457281,-870390,-2491109,164298321,21246,121253,33779,61,f0fefe00,0.0,0.0,0.0,0.0,0.0,0.0
2026-05-25 09:32:12.464948,1779715932.464948,-870390,-2491109,164298321,21246,121253,33779,61,f0fefe00,0.0,0.0,0.0,0.0,0.0,0.0
2026-05-25 09:32:12.470903,1779715932.470903,-1021801,-2458259,164335754,-7076,131138,28806,61,f0fefe00,0.0,0.0,0.0,0.0,0.0,0.0
2026-05-25 09:32:12.478151,1779715932.478151,-1021801,-2458259,164335754,-7076,131138,28806,61,f0fefe00,0.0,0.0,0.0,0.0,0.0,0.0
2026-05-25 09:32:12.485237,1779715932.485237,-969237,-2509439,164320349,-27713,104751,-4735,61,f0fefe00,0.0,0.0,0.0,0.0,0.0,0.0
2026-05-25 09:32:12.492757,1779715932.492757,-969237,-2509439,164320349,-27713,104751,-4735,61,f0fefe00,0.0,0.0,0.0,0.0,0.0,0.0
2026-05-25 09:32:12.498588,1779715932.498588,-931232,-2492666,164320688,-30341,114013,-16868,61,f0fffe00,0.0,0.0,0.0,0.0,0.0,0.0
2026-05-25 09:32:12.505839,1779715932.505839,-931232,-2492666,164320688,-30341,114013,-16868,61,f0fffe00,0.0,0.0,0.0,0.0,0.0,0.0
2026-05-25 09:32:12.511687,1779715932.511687,-831078,-2549970,164330584,-32861,108517,-14630,61,f0fefe00,0.0,0.0,0.0,0.0,0.0,0.0
2026-05-25 09:32:12.518929,1779715932.518929,-831078,-2549970,164330584,-32861,108517,-14630,61,f0fefe00,0.0,0.0,0.0,0.0,0.0,0.0
2026-05-25 09:32:12.524631,1779715932.524631,-873918,-2586967,164368325,9787,138133,-3176,61,f0fefe00,0.0,0.0,0.0,0.0,0.0,0.0
2026-05-25 09:32:12.533168,1779715932.533168,-873918,-2586967,164368325,9787,138133,-3176,61,f0fefe00,0.0,0.0,0.0,0.0,0.0,0.0
2026-05-25 09:32:12.540005,1779715932.540005,-866444,-2568355,164340757,5775,152127,-718,61,f0fefe00,0.0,0.0,0.0,0.0,0.0,0.0
2026-05-25 09:32:12.549777,1779715932.549777,-866444,-2568355,164340757,5775,152127,-718,61,f0fefe00,0.0,0.0,0.0,0.0,0.0,0.0
2026-05-25 09:32:12.557554,1779715932.557554,-1013640,-2556819,164394664,12169,191478,14056,61,f0fefe00,0.0,0.0,0.0,0.0,0.0,0.0
2026-05-25 09:32:12.566474,1779715932.566474,-1013640,-2556819,164394664,12169,191478,14056,61,f0fefe00,0.0,0.0,0.0,0.0,0.0,0.0
2026-05-25 09:32:12.573546,1779715932.573546,-1096609,-2466780,164458416,15251,186094,8727,61,f0fefe00,0.0,0.0,0.0,0.0,0.0,0.0
2026-05-25 09:32:12.582813,1779715932.582813,-1096609,-2466780,164458416,15251,186094,8727,61,f0fefe00,0.0,0.0,0.0,0.0,0.0,0.0
2026-05-25 09:32:12.590623,1779715932.590623,-1225780,-2478414,164575085,54295,137568,4150,61,f0fefe00,0.0,0.0,0.0,0.0,0.0,0.0
2026-05-25 09:32:12.599398,1779715932.599398,-1225780,-2478414,164575085,54295,137568,4150,61,f0fefe00,0.0,0.0,0.0,0.0,0.0,0.0
2026-05-25 09:32:12.606920,1779715932.606920,-1259474,-2389094,164552124,80125,29844,-3974,61,f0fefe00,0.0,0.0,0.0,0.0,0.0,0.0
2026-05-25 09:32:12.616545,1779715932.616545,-1259474,-2389094,164552124,80125,29844,-3974,61,f0fefe00,0.0,0.0,0.0,0.0,0.0,0.0
2026-05-25 09:32:12.623934,1779715932.623934,-1293265,-2369810,164536550,58848,-52709,4841,61,f0fefe00,0.0,0.0,0.0,0.0,0.0,0.0
2026-05-25 09:32:12.633110,1779715932.633110,-1293265,-2369810,164536550,58848,-52709,4841,61,f0fefe00,0.0,0.0,0.0,0.0,0.0,0.0
2026-05-25 09:32:12.640879,1779715932.640879,-1196398,-2375669,164409736,5951,-146399,-6809,61,f0fefe00,0.0,0.0,0.0,0.0,0.0,0.0
2026-05-25 09:32:12.648638,1779715932.648638,-1196398,-2375669,164409736,5951,-146399,-6809,61,f0fefe00,0.0,0.0,0.0,0.0,0.0,0.0
2026-05-25 09:32:12.654612,1779715932.654612,-1139014,-2509930,164519448,-17762,-175928,-19088,61,f0fefe00,0.0,0.0,0.0,0.0,0.0,0.0
2026-05-25 09:32:12.661920,1779715932.661920,-1139014,-2509930,164519448,-17762,-175928,-19088,61,f0fefe00,0.0,0.0,0.0,0.0,0.0,0.0
2026-05-25 09:32:12.667757,1779715932.667757,-971232,-2582374,164382869,-29635,-236200,-37279,61,f0fefe00,0.0,0.0,0.0,0.0,0.0,0.0
2026-05-25 09:32:12.675137,1779715932.675137,-971232,-2582374,164382869,-29635,-236200,-37279,61,f0fefe00,0.0,0.0,0.0,0.0,0.0,0.0
2026-05-25 09:32:12.680851,1779715932.680851,-823327,-2700257,164412703,-2030,-211175,-50922,61,f0fefe00,0.0,0.0,0.0,0.0,0.0,0.0
2026-05-25 09:32:12.687967,1779715932.687967,-823327,-2700257,164412703,-2030,-211175,-50922,61,f0fefe00,0.0,0.0,0.0,0.0,0.0,0.0
2026-05-25 09:32:12.693813,1779715932.693813,-683898,-2678753,164289230,27431,-201776,-48690,61,f0fefe00,0.0,0.0,0.0,0.0,0.0,0.0
2026-05-25 09:32:12.700985,1779715932.700985,-683898,-2678753,164289230,27431,-201776,-48690,61,f0fefe00,0.0,0.0,0.0,0.0,0.0,0.0
2026-05-25 09:32:12.706932,1779715932.706932,-631287,-2701154,164287663,56044,-107501,-42577,61,f0fefe00,0.0,0.0,0.0,0.0,0.0,0.0
2026-05-25 09:32:12.714478,1779715932.714478,-631287,-2701154,164287663,56044,-107501,-42577,61,f0fefe00,0.0,0.0,0.0,0.0,0.0,0.0
2026-05-25 09:32:12.720148,1779715932.720148,-757765,-2568268,164247220,73460,-45918,-22318,61,f0fefe00,0.0,0.0,0.0,0.0,0.0,0.0
2026-05-25 09:32:12.727318,1779715932.727318,-757765,-2568268,164247220,73460,-45918,-22318,61,f0fefe00,0.0,0.0,0.0,0.0,0.0,0.0
2026-05-25 09:32:12.732940,1779715932.732940,-867876,-2528084,164266662,66521,26457,-23201,61,f0fefe00,0.0,0.0,0.0,0.0,0.0,0.0
2026-05-25 09:32:12.740055,1779715932.740055,-867876,-2528084,164266662,66521,26457,-23201,61,f0fefe00,0.0,0.0,0.0,0.0,0.0,0.0
2026-05-25 09:32:12.745733,1779715932.745733,-966313,-2439684,164259571,76361,46143,-14066,61,f0fefe00,0.0,0.0,0.0,0.0,0.0,0.0
2026-05-25 09:32:12.752894,1779715932.752894,-966313,-2439684,164259571,76361,46143,-14066,61,f0fefe00,0.0,0.0,0.0,0.0,0.0,0.0
2026-05-25 09:32:12.758735,1779715932.758735,-894157,-2475320,164285192,58643,58858,-22389,61,f0fefe00,0.0,0.0,0.0,0.0,0.0,0.0
2026-05-25 09:32:12.766089,1779715932.766089,-894157,-2475320,164285192,58643,58858,-22389,61,f0fefe00,0.0,0.0,0.0,0.0,0.0,0.0
2026-05-25 09:32:12.771903,1779715932.771903,-837275,-2516490,164263269,41032,79497,-18844,61,f0fefe00,0.0,0.0,0.0,0.0,0.0,0.0
2026-05-25 09:32:12.779338,1779715932.779338,-837275,-2516490,164263269,41032,79497,-18844,61,f0fefe00,0.0,0.0,0.0,0.0,0.0,0.0
2026-05-25 09:32:12.785110,1779715932.785110,-755425,-2584689,164264970,51468,126323,-16162,61,f0fefe00,0.0,0.0,0.0,0.0,0.0,0.0
2026-05-25 09:32:12.792420,1779715932.792420,-755425,-2584689,164264970,51468,126323,-16162,61,f0fefe00,0.0,0.0,0.0,0.0,0.0,0.0
2026-05-25 09:32:12.798120,1779715932.798120,-813528,-2587584,164259753,57119,163092,6355,61,f0fefe00,0.0,0.0,0.0,0.0,0.0,0.0
2026-05-25 09:32:12.805358,1779715932.805358,-813528,-2587584,164259753,57119,163092,6355,61,f0fefe00,0.0,0.0,0.0,0.0,0.0,0.0
2026-05-25 09:32:12.811022,1779715932.811022,-810249,-2581553,164318386,64844,215317,33152,61,f0fefe00,0.0,0.0,0.0,0.0,0.0,0.0
2026-05-25 09:32:12.818311,1779715932.818311,-810249,-2581553,164318386,64844,215317,33152,61,f0fefe00,0.0,0.0,0.0,0.0,0.0,0.0
2026-05-25 09:32:12.824106,1779715932.824106,-1002959,-2504804,164371902,58705,228080,35379,61,f0fefe00,0.0,0.0,0.0,0.0,0.0,0.0
2026-05-25 09:32:12.831396,1779715932.831396,-1002959,-2504804,164371902,58705,228080,35379,61,f0fefe00,0.0,0.0,0.0,0.0,0.0,0.0
2026-05-25 09:32:12.837080,1779715932.837080,-1134556,-2475005,164462352,44175,226549,17868,61,f0fefe00,0.0,0.0,0.0,0.0,0.0,0.0
2026-05-25 09:32:12.844348,1779715932.844348,-1134556,-2475005,164462352,44175,226549,17868,61,f0fefe00,0.0,0.0,0.0,0.0,0.0,0.0
2026-05-25 09:32:12.850163,1779715932.850163,-1339424,-2399558,164478090,37097,125793,12735,61,f0fefe00,0.0,0.0,0.0,0.0,0.0,0.0
2026-05-25 09:32:12.857409,1779715932.857409,-1339424,-2399558,164478090,37097,125793,12735,61,f0fefe00,0.0,0.0,0.0,0.0,0.0,0.0
2026-05-25 09:32:12.863019,1779715932.863019,-1342480,-2424049,164525421,29640,42181,-7039,61,f0fefe00,0.0,0.0,0.0,0.0,0.0,0.0
2026-05-25 09:32:12.870199,1779715932.870199,-1342480,-2424049,164525421,29640,42181,-7039,61,f0fefe00,0.0,0.0,0.0,0.0,0.0,0.0
2026-05-25 09:32:12.875849,1779715932.875849,-1327176,-2373905,164506643,12541,-60288,-1194,61,f0fefe00,0.0,0.0,0.0,0.0,0.0,0.0
2026-05-25 09:32:12.883675,1779715932.883675,-1327176,-2373905,164506643,12541,-60288,-1194,61,f0fefe00,0.0,0.0,0.0,0.0,0.0,0.0
2026-05-25 09:32:12.889451,1779715932.889451,-1241834,-2461114,164484735,35965,-95595,-23100,61,f0fefe00,0.0,0.0,0.0,0.0,0.0,0.0
2026-05-25 09:32:12.896909,1779715932.896909,-1241834,-2461114,164484735,35965,-95595,-23100,61,f0fefe00,0.0,0.0,0.0,0.0,0.0,0.0
2026-05-25 09:32:12.902759,1779715932.902759,-1187907,-2520046,164453271,34918,-128716,-17207,61,f0fefe00,0.0,0.0,0.0,0.0,0.0,0.0
2026-05-25 09:32:12.910085,1779715932.910085,-1187907,-2520046,164453271,34918,-128716,-17207,61,f0fefe00,0.0,0.0,0.0,0.0,0.0,0.0
2026-05-25 09:32:12.916012,1779715932.916012,-1057613,-2649546,164406742,43871,-136666,-9077,61,f0fefe00,0.0,0.0,0.0,0.0,0.0,0.0
2026-05-25 09:32:12.923787,1779715932.923787,-1057613,-2649546,164406742,43871,-136666,-9077,61,f0fefe00,0.0,0.0,0.0,0.0,0.0,0.0
2026-05-25 09:32:12.929601,1779715932.929601,-977475,-2685345,164384458,47414,-135598,-12424,61,f0fefe00,0.0,0.0,0.0,0.0,0.0,0.0
2026-05-25 09:32:12.936827,1779715932.936827,-977475,-2685345,164384458,47414,-135598,-12424,61,f0fefe00,0.0,0.0,0.0,0.0,0.0,0.0
2026-05-25 09:32:12.942414,1779715932.942414,-897257,-2685037,164382539,48160,-94916,-24778,61,f0fefe00,0.0,0.0,0.0,0.0,0.0,0.0
2026-05-25 09:32:12.949529,1779715932.949529,-897257,-2685037,164382539,48160,-94916,-24778,61,f0fefe00,0.0,0.0,0.0,0.0,0.0,0.0
2026-05-25 09:32:12.955401,1779715932.955401,-817925,-2624154,164349165,70269,-84660,-58887,61,f0fefe00,0.0,0.0,0.0,0.0,0.0,0.0
2026-05-25 09:32:12.963285,1779715932.963285,-817925,-2624154,164349165,70269,-84660,-58887,61,f0fefe00,0.0,0.0,0.0,0.0,0.0,0.0
2026-05-25 09:32:12.968988,1779715932.968988,-751116,-2568412,164360954,55521,-29492,-46883,61,f0fefe00,0.0,0.0,0.0,0.0,0.0,0.0
2026-05-25 09:32:12.976400,1779715932.976400,-751116,-2568412,164360954,55521,-29492,-46883,61,f0fefe00,0.0,0.0,0.0,0.0,0.0,0.0
2026-05-25 09:32:12.982280,1779715932.982280,-727092,-2491864,164306096,32404,-4613,-22146,61,f0fefe00,0.0,0.0,0.0,0.0,0.0,0.0
2026-05-25 09:32:12.989599,1779715932.989599,-727092,-2491864,164306096,32404,-4613,-22146,61,f0fefe00,0.0,0.0,0.0,0.0,0.0,0.0
2026-05-25 09:32:12.995415,1779715932.995415,-776924,-2466762,164297883,15718,43841,2039,61,f0fefe00,0.0,0.0,0.0,0.0,0.0,0.0
2026-05-25 09:32:13.002727,1779715933.002727,-776924,-2466762,164297883,15718,43841,2039,61,f0fefe00,0.0,0.0,0.0,0.0,0.0,0.0
2026-05-25 09:32:13.011914,1779715933.011914,-881318,-2467425,164311201,-14103,44638,14161,61,f0fefe00,0.0,0.0,0.0,0.0,0.0,0.0
2026-05-25 09:32:13.019402,1779715933.019402,-881318,-2467425,164311201,-14103,44638,14161,61,f0fefe00,0.0,0.0,0.0,0.0,0.0,0.0
2026-05-25 09:32:13.025183,1779715933.025183,-961283,-2516008,164354875,-7509,57186,9774,61,f0fefe00,0.0,0.0,0.0,0.0,0.0,0.0
2026-05-25 09:32:13.033642,1779715933.033642,-961283,-2516008,164354875,-7509,57186,9774,61,f0fefe00,0.0,0.0,0.0,0.0,0.0,0.0
2026-05-25 09:32:13.040649,1779715933.040649,-947365,-2518356,164364320,-16558,93380,-2911,61,f0fefe00,0.0,0.0,0.0,0.0,0.0,0.0
2026-05-25 09:32:13.049239,1779715933.049239,-947365,-2518356,164364320,-16558,93380,-2911,61,f0fefe00,0.0,0.0,0.0,0.0,0.0,0.0
2026-05-25 09:32:13.061444,1779715933.061444,-889197,-2584049,164398978,-22780,134375,-3643,61,f0fefe00,0.0,0.0,0.0,0.0,0.0,0.0
2026-05-25 09:32:13.077697,1779715933.077697,-889197,-2584049,164398978,-22780,134375,-3643,61,f0fefe00,0.0,0.0,0.0,0.0,0.0,0.0
2026-05-25 09:32:13.087504,1779715933.087504,-849266,-2546834,164376790,-22427,157547,-8723,61,f0fefe00,0.0,0.0,0.0,0.0,0.0,0.0
2026-05-25 09:32:13.095149,1779715933.095149,-849266,-2546834,164376790,-22427,157547,-8723,61,f0fefe00,0.0,0.0,0.0,0.0,0.0,0.0
2026-05-25 09:32:13.102623,1779715933.102623,-940641,-2568023,164424585,-34,159932,12926,61,f0fefe00,0.0,0.0,0.0,0.0,0.0,0.0
2026-05-25 09:32:13.117664,1779715933.117664,-940641,-2568023,164424585,-34,159932,12926,61,f0fefe00,0.0,0.0,0.0,0.0,0.0,0.0
2026-05-25 09:32:13.130425,1779715933.130425,-1048776,-2549976,164392852,47462,141457,23738,61,f0fefe00,0.0,0.0,0.0,0.0,0.0,0.0
2026-05-25 09:32:13.144877,1779715933.144877,-1048776,-2549976,164392852,47462,141457,23738,61,f0fefe00,0.0,0.0,0.0,0.0,0.0,0.0
2026-05-25 09:32:13.152450,1779715933.152450,-1215218,-2584733,164439004,25043,128040,33093,61,f0fefe00,0.0,0.0,0.0,0.0,0.0,0.0
2026-05-25 09:32:13.160893,1779715933.160893,-1215218,-2584733,164439004,25043,128040,33093,61,f0fefe00,0.0,0.0,0.0,0.0,0.0,0.0
2026-05-25 09:32:13.166937,1779715933.166937,-1308130,-2541043,164426288,11806,61266,26483,61,f0fefe00,0.0,0.0,0.0,0.0,0.0,0.0
2026-05-25 09:32:13.174422,1779715933.174422,-1308130,-2541043,164426288,11806,61266,26483,61,f0fefe00,0.0,0.0,0.0,0.0,0.0,0.0
2026-05-25 09:32:13.182464,1779715933.182464,-1298531,-2543238,164460815,-6754,-24029,17166,61,f0fefe00,0.0,0.0,0.0,0.0,0.0,0.0
2026-05-25 09:32:13.189747,1779715933.189747,-1298531,-2543238,164460815,-6754,-24029,17166,61,f0fefe00,0.0,0.0,0.0,0.0,0.0,0.0
2026-05-25 09:32:13.195577,1779715933.195577,-1184485,-2519539,164434460,10704,-105517,-6682,61,f0fefe00,0.0,0.0,0.0,0.0,0.0,0.0
2026-05-25 09:32:13.202772,1779715933.202772,-1184485,-2519539,164434460,10704,-105517,-6682,61,f0fefe00,0.0,0.0,0.0,0.0,0.0,0.0
2026-05-25 09:32:13.208671,1779715933.208671,-1000277,-2560421,164395089,42613,-144232,-10205,61,f0fefe00,0.0,0.0,0.0,0.0,0.0,0.0
2026-05-25 09:32:13.215893,1779715933.215893,-1000277,-2560421,164395089,42613,-144232,-10205,61,f0fefe00,0.0,0.0,0.0,0.0,0.0,0.0
2026-05-25 09:32:13.221506,1779715933.221506,-915852,-2576229,164328717,69723,-122831,-19297,61,f0fefe00,0.0,0.0,0.0,0.0,0.0,0.0
2026-05-25 09:32:13.228750,1779715933.228750,-915852,-2576229,164328717,69723,-122831,-19297,61,f0fefe00,0.0,0.0,0.0,0.0,0.0,0.0
2026-05-25 09:32:13.234363,1779715933.234363,-806917,-2588540,164295552,62400,-103716,-7064,61,f0fefe00,0.0,0.0,0.0,0.0,0.0,0.0
2026-05-25 09:32:13.241529,1779715933.241529,-806917,-2588540,164295552,62400,-103716,-7064,61,f0fefe00,0.0,0.0,0.0,0.0,0.0,0.0
2026-05-25 09:32:13.247075,1779715933.247075,-757020,-2568666,164273529,68335,-52066,9937,61,f0fefe00,0.0,0.0,0.0,0.0,0.0,0.0
2026-05-25 09:32:13.254097,1779715933.254097,-757020,-2568666,164273529,68335,-52066,9937,61,f0fefe00,0.0,0.0,0.0,0.0,0.0,0.0
2026-05-25 09:32:13.259706,1779715933.259706,-741882,-2553848,164271472,29078,-22939,13022,61,f0fefe00,0.0,0.0,0.0,0.0,0.0,0.0
2026-05-25 09:32:13.266997,1779715933.266997,-741882,-2553848,164271472,29078,-22939,13022,61,f0fefe00,0.0,0.0,0.0,0.0,0.0,0.0
2026-05-25 09:32:13.272565,1779715933.272565,-770255,-2541177,164278660,4606,21378,5885,61,f0fefe00,0.0,0.0,0.0,0.0,0.0,0.0
2026-05-25 09:32:13.279837,1779715933.279837,-770255,-2541177,164278660,4606,21378,5885,61,f0fefe00,0.0,0.0,0.0,0.0,0.0,0.0
2026-05-25 09:32:13.285476,1779715933.285476,-771096,-2519641,164279708,-26315,41498,-10795,61,f0fefe00,0.0,0.0,0.0,0.0,0.0,0.0
2026-05-25 09:32:13.292641,1779715933.292641,-771096,-2519641,164279708,-26315,41498,-10795,61,f0fefe00,0.0,0.0,0.0,0.0,0.0,0.0
2026-05-25 09:32:13.298296,1779715933.298296,-785645,-2536585,164271482,6222,70828,-1444,61,f0fefe00,0.0,0.0,0.0,0.0,0.0,0.0
2026-05-25 09:32:13.305429,1779715933.305429,-785645,-2536585,164271482,6222,70828,-1444,61,f0fefe00,0.0,0.0,0.0,0.0,0.0,0.0
2026-05-25 09:32:13.310953,1779715933.310953,-818223,-2548950,164279395,12946,92530,19795,61,f0fefe00,0.0,0.0,0.0,0.0,0.0,0.0
2026-05-25 09:32:13.318130,1779715933.318130,-818223,-2548950,164279395,12946,92530,19795,61,f0fefe00,0.0,0.0,0.0,0.0,0.0,0.0
2026-05-25 09:32:13.323854,1779715933.323854,-896653,-2544849,164315894,16166,124199,19528,61,f0fefe00,0.0,0.0,0.0,0.0,0.0,0.0
2026-05-25 09:32:13.331072,1779715933.331072,-896653,-2544849,164315894,16166,124199,19528,61,f0fefe00,0.0,0.0,0.0,0.0,0.0,0.0
2026-05-25 09:32:13.336725,1779715933.336725,-990188,-2526219,164313657,-9588,126514,30706,61,f0fefe00,0.0,0.0,0.0,0.0,0.0,0.0
2026-05-25 09:32:13.343941,1779715933.343941,-990188,-2526219,164313657,-9588,126514,30706,61,f0fefe00,0.0,0.0,0.0,0.0,0.0,0.0
2026-05-25 09:32:13.349602,1779715933.349602,-1044631,-2537116,164362283,-6650,124022,24122,61,f0fefe00,0.0,0.0,0.0,0.0,0.0,0.0
2026-05-25 09:32:13.356807,1779715933.356807,-1044631,-2537116,164362283,-6650,124022,24122,61,f0fefe00,0.0,0.0,0.0,0.0,0.0,0.0
2026-05-25 09:32:13.362576,1779715933.362576,-1080603,-2522115,164365003,7649,115720,6376,61,f0fefe00,0.0,0.0,0.0,0.0,0.0,0.0
2026-05-25 09:32:13.369773,1779715933.369773,-1080603,-2522115,164365003,7649,115720,6376,61,f0fefe00,0.0,0.0,0.0,0.0,0.0,0.0
2026-05-25 09:32:13.375559,1779715933.375559,-1053017,-2492883,164414033,16457,119064,8415,61,f0fefe00,0.0,0.0,0.0,0.0,0.0,0.0
2026-05-25 09:32:13.382842,1779715933.382842,-1053017,-2492883,164414033,16457,119064,8415,61,f0fefe00,0.0,0.0,0.0,0.0,0.0,0.0
2026-05-25 09:32:13.388568,1779715933.388568,-1088925,-2426822,164450932,48686,99396,12927,61,f0fefe00,0.0,0.0,0.0,0.0,0.0,0.0
2026-05-25 09:32:13.395637,1779715933.395637,-1088925,-2426822,164450932,48686,99396,12927,61,f0fefe00,0.0,0.0,0.0,0.0,0.0,0.0
2026-05-25 09:32:13.401298,1779715933.401298,-1098132,-2366056,164454352,53814,81513,33922,61,f0fefe00,0.0,0.0,0.0,0.0,0.0,0.0
2026-05-25 09:32:13.408448,1779715933.408448,-1098132,-2366056,164454352,53814,81513,33922,61,f0fefe00,0.0,0.0,0.0,0.0,0.0,0.0
2026-05-25 09:32:13.414057,1779715933.414057,-1133903,-2370614,164472319,31328,33786,16945,61,f0fefe00,0.0,0.0,0.0,0.0,0.0,0.0
2026-05-25 09:32:13.421114,1779715933.421114,-1133903,-2370614,164472319,31328,33786,16945,61,f0fefe00,0.0,0.0,0.0,0.0,0.0,0.0
2026-05-25 09:32:13.426772,1779715933.426772,-1119355,-2444631,164454812,6682,8725,8646,61,f0fefe00,0.0,0.0,0.0,0.0,0.0,0.0
2026-05-25 09:32:13.433898,1779715933.433898,-1119355,-2444631,164454812,6682,8725,8646,61,f0fefe00,0.0,0.0,0.0,0.0,0.0,0.0
2026-05-25 09:32:13.439461,1779715933.439461,-1123801,-2529827,164498277,-458,-37133,-12302,61,f0fefe00,0.0,0.0,0.0,0.0,0.0,0.0
2026-05-25 09:32:13.446632,1779715933.446632,-1123801,-2529827,164498277,-458,-37133,-12302,61,f0fefe00,0.0,0.0,0.0,0.0,0.0,0.0
2026-05-25 09:32:13.452154,1779715933.452154,-1053299,-2572079,164476782,4917,-64290,-7304,61,f0fefe00,0.0,0.0,0.0,0.0,0.0,0.0
2026-05-25 09:32:13.459298,1779715933.459298,-1053299,-2572079,164476782,4917,-64290,-7304,61,f0fefe00,0.0,0.0,0.0,0.0,0.0,0.0
2026-05-25 09:32:13.464873,1779715933.464873,-988449,-2575745,164415044,-4702,-84991,-9055,61,f0fefe00,0.0,0.0,0.0,0.0,0.0,0.0
2026-05-25 09:32:13.472164,1779715933.472164,-988449,-2575745,164415044,-4702,-84991,-9055,61,f0fefe00,0.0,0.0,0.0,0.0,0.0,0.0
2026-05-25 09:32:13.477832,1779715933.477832,-880490,-2596216,164365831,7249,-90337,17863,61,f0fdfe00,0.0,0.0,0.0,0.0,0.0,0.0
2026-05-25 09:32:13.484961,1779715933.484961,-880490,-2596216,164365831,7249,-90337,17863,61,f0fdfe00,0.0,0.0,0.0,0.0,0.0,0.0
2026-05-25 09:32:13.490575,1779715933.490575,-870202,-2637875,164299540,17283,-48798,4145,61,f0fdfe00,0.0,0.0,0.0,0.0,0.0,0.0
2026-05-25 09:32:13.497738,1779715933.497738,-870202,-2637875,164299540,17283,-48798,4145,61,f0fdfe00,0.0,0.0,0.0,0.0,0.0,0.0
2026-05-25 09:32:13.503801,1779715933.503801,-838268,-2609473,164291411,35940,-2686,1605,61,f0fdfe00,0.0,0.0,0.0,0.0,0.0,0.0
2026-05-25 09:32:13.511019,1779715933.511019,-838268,-2609473,164291411,35940,-2686,1605,61,f0fdfe00,0.0,0.0,0.0,0.0,0.0,0.0
2026-05-25 09:32:13.516649,1779715933.516649,-838248,-2571122,164294491,23958,44237,-6443,61,f0fdfe00,0.0,0.0,0.0,0.0,0.0,0.0
2026-05-25 09:32:13.523920,1779715933.523920,-838248,-2571122,164294491,23958,44237,-6443,61,f0fdfe00,0.0,0.0,0.0,0.0,0.0,0.0
2026-05-25 09:32:13.529630,1779715933.529630,-829711,-2512907,164337660,22420,71756,-20485,61,f0fdfe00,0.0,0.0,0.0,0.0,0.0,0.0
2026-05-25 09:32:13.536742,1779715933.536742,-829711,-2512907,164337660,22420,71756,-20485,61,f0fdfe00,0.0,0.0,0.0,0.0,0.0,0.0
2026-05-25 09:32:13.542410,1779715933.542410,-853262,-2495987,164347086,14705,98220,-23547,61,f0fdfe00,0.0,0.0,0.0,0.0,0.0,0.0
2026-05-25 09:32:13.549583,1779715933.549583,-853262,-2495987,164347086,14705,98220,-23547,61,f0fdfe00,0.0,0.0,0.0,0.0,0.0,0.0
2026-05-25 09:32:13.555154,1779715933.555154,-857501,-2526181,164314222,10266,69725,-41495,61,f0fdfe00,0.0,0.0,0.0,0.0,0.0,0.0
2026-05-25 09:32:13.562974,1779715933.562974,-857501,-2526181,164314222,10266,69725,-41495,61,f0fdfe00,0.0,0.0,0.0,0.0,0.0,0.0
2026-05-25 09:32:13.568603,1779715933.568603,-855535,-2494731,164281695,15353,92901,-40079,61,f0fdfe00,0.0,0.0,0.0,0.0,0.0,0.0
2026-05-25 09:32:13.575687,1779715933.575687,-855535,-2494731,164281695,15353,92901,-40079,61,f0fdfe00,0.0,0.0,0.0,0.0,0.0,0.0
2026-05-25 09:32:13.581437,1779715933.581437,-828283,-2520303,164300801,12222,89231,-25758,61,f0fdfe00,0.0,0.0,0.0,0.0,0.0,0.0
2026-05-25 09:32:13.588558,1779715933.588558,-828283,-2520303,164300801,12222,89231,-25758,61,f0fdfe00,0.0,0.0,0.0,0.0,0.0,0.0
2026-05-25 09:32:13.594369,1779715933.594369,-878218,-2490073,164344971,19055,130445,3493,61,f0fefe00,0.0,0.0,0.0,0.0,0.0,0.0
2026-05-25 09:32:13.601573,1779715933.601573,-878218,-2490073,164344971,19055,130445,3493,61,f0fefe00,0.0,0.0,0.0,0.0,0.0,0.0
2026-05-25 09:32:13.607179,1779715933.607179,-906328,-2491989,164366413,14315,116394,23213,61,f0fefe00,0.0,0.0,0.0,0.0,0.0,0.0
2026-05-25 09:32:13.614408,1779715933.614408,-906328,-2491989,164366413,14315,116394,23213,61,f0fefe00,0.0,0.0,0.0,0.0,0.0,0.0
2026-05-25 09:32:13.620032,1779715933.620032,-1005437,-2502263,164380690,16360,100908,29338,61,f0fefe00,0.0,0.0,0.0,0.0,0.0,0.0
2026-05-25 09:32:13.627195,1779715933.627195,-1005437,-2502263,164380690,16360,100908,29338,61,f0fefe00,0.0,0.0,0.0,0.0,0.0,0.0
2026-05-25 09:32:13.633082,1779715933.633082,-1107281,-2488092,164388760,24460,73551,10076,61,f0fefe00,0.0,0.0,0.0,0.0,0.0,0.0
2026-05-25 09:32:13.640332,1779715933.640332,-1107281,-2488092,164388760,24460,73551,10076,61,f0fefe00,0.0,0.0,0.0,0.0,0.0,0.0
2026-05-25 09:32:13.646287,1779715933.646287,-1150677,-2538898,164430738,31079,30161,-4558,61,f0fdfe00,0.0,0.0,0.0,0.0,0.0,0.0
2026-05-25 09:32:13.653408,1779715933.653408,-1150677,-2538898,164430738,31079,30161,-4558,61,f0fdfe00,0.0,0.0,0.0,0.0,0.0,0.0
2026-05-25 09:32:13.659048,1779715933.659048,-1088265,-2529753,164432688,18639,15252,-2932,61,f0fdfe00,0.0,0.0,0.0,0.0,0.0,0.0
2026-05-25 09:32:13.666166,1779715933.666166,-1088265,-2529753,164432688,18639,15252,-2932,61,f0fdfe00,0.0,0.0,0.0,0.0,0.0,0.0
2026-05-25 09:32:13.671787,1779715933.671787,-1073412,-2533594,164431600,-5277,20002,19977,61,f0fdfe00,0.0,0.0,0.0,0.0,0.0,0.0
2026-05-25 09:32:13.678832,1779715933.678832,-1073412,-2533594,164431600,-5277,20002,19977,61,f0fdfe00,0.0,0.0,0.0,0.0,0.0,0.0
2026-05-25 09:32:13.684411,1779715933.684411,-1093996,-2484993,164404486,1904,-19152,18708,61,f0fefe00,0.0,0.0,0.0,0.0,0.0,0.0
2026-05-25 09:32:13.691662,1779715933.691662,-1093996,-2484993,164404486,1904,-19152,18708,61,f0fefe00,0.0,0.0,0.0,0.0,0.0,0.0
2026-05-25 09:32:13.697353,1779715933.697353,-1104928,-2509291,164413267,14281,-43432,-2350,61,f0fefe00,0.0,0.0,0.0,0.0,0.0,0.0
2026-05-25 09:32:13.726596,1779715933.726596,-1104928,-2509291,164413267,14281,-43432,-2350,61,f0fefe00,0.0,0.0,0.0,0.0,0.0,0.0
2026-05-25 09:32:13.743141,1779715933.743141,-1094728,-2499604,164355345,38090,-93945,-13701,61,f0fefe00,0.0,0.0,0.0,0.0,0.0,0.0
2026-05-25 09:32:13.750542,1779715933.750542,-1094728,-2499604,164355345,38090,-93945,-13701,61,f0fefe00,0.0,0.0,0.0,0.0,0.0,0.0
2026-05-25 09:32:13.756193,1779715933.756193,-994592,-2535018,164345237,49157,-91418,-12669,61,f0fefe00,0.0,0.0,0.0,0.0,0.0,0.0
2026-05-25 09:32:13.763362,1779715933.763362,-994592,-2535018,164345237,49157,-91418,-12669,61,f0fefe00,0.0,0.0,0.0,0.0,0.0,0.0
2026-05-25 09:32:13.768971,1779715933.768971,-905325,-2533788,164268597,38968,-96422,-10519,61,f0fefe00,0.0,0.0,0.0,0.0,0.0,0.0
2026-05-25 09:32:13.776116,1779715933.776116,-905325,-2533788,164268597,38968,-96422,-10519,61,f0fefe00,0.0,0.0,0.0,0.0,0.0,0.0
2026-05-25 09:32:13.781636,1779715933.781636,-806703,-2551966,164275570,19488,-68560,11972,61,f0fefe00,0.0,0.0,0.0,0.0,0.0,0.0
2026-05-25 09:32:13.788769,1779715933.788769,-806703,-2551966,164275570,19488,-68560,11972,61,f0fefe00,0.0,0.0,0.0,0.0,0.0,0.0
2026-05-25 09:32:13.794435,1779715933.794435,-738208,-2570936,164207018,-9842,-11035,19972,61,f0fefe00,0.0,0.0,0.0,0.0,0.0,0.0
2026-05-25 09:32:13.801803,1779715933.801803,-738208,-2570936,164207018,-9842,-11035,19972,61,f0fefe00,0.0,0.0,0.0,0.0,0.0,0.0
2026-05-25 09:32:13.807366,1779715933.807366,-733019,-2598052,164219218,2940,53399,29327,61,f0fdfe00,0.0,0.0,0.0,0.0,0.0,0.0
2026-05-25 09:32:13.814376,1779715933.814376,-733019,-2598052,164219218,2940,53399,29327,61,f0fdfe00,0.0,0.0,0.0,0.0,0.0,0.0
2026-05-25 09:32:13.819843,1779715933.819843,-810258,-2596691,164248939,3033,93556,21468,61,f0fdfe00,0.0,0.0,0.0,0.0,0.0,0.0
2026-05-25 09:32:13.826834,1779715933.826834,-810258,-2596691,164248939,3033,93556,21468,61,f0fdfe00,0.0,0.0,0.0,0.0,0.0,0.0
2026-05-25 09:32:13.832454,1779715933.832454,-882551,-2641637,164296091,23562,130289,7240,61,f0fefe00,0.0,0.0,0.0,0.0,0.0,0.0
2026-05-25 09:32:13.839524,1779715933.839524,-882551,-2641637,164296091,23562,130289,7240,61,f0fefe00,0.0,0.0,0.0,0.0,0.0,0.0
2026-05-25 09:32:13.845183,1779715933.845183,-953360,-2637381,164334306,42330,130819,-2186,61,f0fefe00,0.0,0.0,0.0,0.0,0.0,0.0
2026-05-25 09:32:13.852460,1779715933.852460,-953360,-2637381,164334306,42330,130819,-2186,61,f0fefe00,0.0,0.0,0.0,0.0,0.0,0.0
2026-05-25 09:32:13.857998,1779715933.857998,-970473,-2690003,164350332,68384,123655,5376,61,f0fefe00,0.0,0.0,0.0,0.0,0.0,0.0
2026-05-25 09:32:13.864992,1779715933.864992,-970473,-2690003,164350332,68384,123655,5376,61,f0fefe00,0.0,0.0,0.0,0.0,0.0,0.0
2026-05-25 09:32:13.870522,1779715933.870522,-992526,-2629931,164356824,82992,110594,-16277,61,f0fefe00,0.0,0.0,0.0,0.0,0.0,0.0
2026-05-25 09:32:13.877613,1779715933.877613,-992526,-2629931,164356824,82992,110594,-16277,61,f0fefe00,0.0,0.0,0.0,0.0,0.0,0.0
2026-05-25 09:32:13.883374,1779715933.883374,-1006903,-2583392,164359491,67394,86646,-12697,61,f0fdfe00,0.0,0.0,0.0,0.0,0.0,0.0
2026-05-25 09:32:13.890346,1779715933.890346,-1006903,-2583392,164359491,67394,86646,-12697,61,f0fdfe00,0.0,0.0,0.0,0.0,0.0,0.0
2026-05-25 09:32:13.895839,1779715933.895839,-983027,-2480680,164366830,58354,80041,1926,61,f0fdfe00,0.0,0.0,0.0,0.0,0.0,0.0
2026-05-25 09:32:13.903099,1779715933.903099,-983027,-2480680,164366830,58354,80041,1926,61,f0fdfe00,0.0,0.0,0.0,0.0,0.0,0.0
2026-05-25 09:32:13.908681,1779715933.908681,-1019070,-2408526,164380686,25564,57951,2947,61,f0fdfe00,0.0,0.0,0.0,0.0,0.0,0.0
2026-05-25 09:32:13.915622,1779715933.915622,-1019070,-2408526,164380686,25564,57951,2947,61,f0fdfe00,0.0,0.0,0.0,0.0,0.0,0.0
2026-05-25 09:32:13.921106,1779715933.921106,-1042806,-2389290,164420441,30404,62347,17150,61,f0fefe00,0.0,0.0,0.0,0.0,0.0,0.0
2026-05-25 09:32:13.928108,1779715933.928108,-1042806,-2389290,164420441,30404,62347,17150,61,f0fefe00,0.0,0.0,0.0,0.0,0.0,0.0
2026-05-25 09:32:13.933662,1779715933.933662,-1108360,-2409936,164474619,32872,44078,-9084,61,f0fefe00,0.0,0.0,0.0,0.0,0.0,0.0
2026-05-25 09:32:13.940601,1779715933.940601,-1108360,-2409936,164474619,32872,44078,-9084,61,f0fefe00,0.0,0.0,0.0,0.0,0.0,0.0
2026-05-25 09:32:13.946136,1779715933.946136,-1101006,-2471912,164460681,25815,33173,1135,61,f0fefe00,0.0,0.0,0.0,0.0,0.0,0.0
2026-05-25 09:32:13.953350,1779715933.953350,-1101006,-2471912,164460681,25815,33173,1135,61,f0fefe00,0.0,0.0,0.0,0.0,0.0,0.0
2026-05-25 09:32:13.959909,1779715933.959909,-1073650,-2564418,164426281,28104,-13938,-9315,61,f0fdfe00,0.0,0.0,0.0,0.0,0.0,0.0
2026-05-25 09:32:13.967714,1779715933.967714,-1073650,-2564418,164426281,28104,-13938,-9315,61,f0fdfe00,0.0,0.0,0.0,0.0,0.0,0.0
2026-05-25 09:32:13.973420,1779715933.973420,-1072644,-2647815,164398050,16548,-41329,-3209,61,f0fdfe00,0.0,0.0,0.0,0.0,0.0,0.0
2026-05-25 09:32:13.981169,1779715933.981169,-1072644,-2647815,164398050,16548,-41329,-3209,61,f0fdfe00,0.0,0.0,0.0,0.0,0.0,0.0
2026-05-25 09:32:13.987259,1779715933.987259,-1052882,-2661069,164353567,35080,-66342,-12202,61,f0fdfe00,0.0,0.0,0.0,0.0,0.0,0.0
2026-05-25 09:32:13.994571,1779715933.994571,-1052882,-2661069,164353567,35080,-66342,-12202,61,f0fdfe00,0.0,0.0,0.0,0.0,0.0,0.0
2026-05-25 09:32:14.000881,1779715934.000881,-973624,-2649886,164310327,42331,-48414,-15329,61,f0fdfe00,0.0,0.0,0.0,0.0,0.0,0.0
2026-05-25 09:32:14.008403,1779715934.008403,-973624,-2649886,164310327,42331,-48414,-15329,61,f0fdfe00,0.0,0.0,0.0,0.0,0.0,0.0
2026-05-25 09:32:14.014382,1779715934.014382,-906222,-2623172,164285473,50445,-37174,-32167,61,f0fefe00,0.0,0.0,0.0,0.0,0.0,0.0
2026-05-25 09:32:14.021841,1779715934.021841,-906222,-2623172,164285473,50445,-37174,-32167,61,f0fefe00,0.0,0.0,0.0,0.0,0.0,0.0
2026-05-25 09:32:14.027418,1779715934.027418,-822463,-2579152,164244778,30437,-32613,-24951,61,f0fefe00,0.0,0.0,0.0,0.0,0.0,0.0
2026-05-25 09:32:14.034990,1779715934.034990,-822463,-2579152,164244778,30437,-32613,-24951,61,f0fefe00,0.0,0.0,0.0,0.0,0.0,0.0
2026-05-25 09:32:14.040837,1779715934.040837,-794594,-2519247,164273817,29200,-23302,-15099,61,f0fefe00,0.0,0.0,0.0,0.0,0.0,0.0
2026-05-25 09:32:14.048358,1779715934.048358,-794594,-2519247,164273817,29200,-23302,-15099,61,f0fefe00,0.0,0.0,0.0,0.0,0.0,0.0
2026-05-25 09:32:14.054034,1779715934.054034,-768470,-2518959,164290473,751,-7413,5100,61,f0fefe00,0.0,0.0,0.0,0.0,0.0,0.0
2026-05-25 09:32:14.062685,1779715934.062685,-768470,-2518959,164290473,751,-7413,5100,61,f0fefe00,0.0,0.0,0.0,0.0,0.0,0.0
2026-05-25 09:32:14.068406,1779715934.068406,-805875,-2498790,164337063,29436,31056,21452,61,f0fefe00,0.0,0.0,0.0,0.0,0.0,0.0
2026-05-25 09:32:14.075700,1779715934.075700,-805875,-2498790,164337063,29436,31056,21452,61,f0fefe00,0.0,0.0,0.0,0.0,0.0,0.0
2026-05-25 09:32:14.082789,1779715934.082789,-838587,-2536494,164348437,28642,53829,36922,61,f0fefe00,0.0,0.0,0.0,0.0,0.0,0.0
2026-05-25 09:32:14.091141,1779715934.091141,-838587,-2536494,164348437,28642,53829,36922,61,f0fefe00,0.0,0.0,0.0,0.0,0.0,0.0
2026-05-25 09:32:14.096801,1779715934.096801,-899396,-2507555,164362839,54905,64160,23463,61,f0fdfe00,0.0,0.0,0.0,0.0,0.0,0.0
2026-05-25 09:32:14.103839,1779715934.103839,-899396,-2507555,164362839,54905,64160,23463,61,f0fdfe00,0.0,0.0,0.0,0.0,0.0,0.0
2026-05-25 09:32:14.109432,1779715934.109432,-986504,-2505609,164390357,44325,63881,8714,61,f0fdfe00,0.0,0.0,0.0,0.0,0.0,0.0
2026-05-25 09:32:14.116763,1779715934.116763,-986504,-2505609,164390357,44325,63881,8714,61,f0fdfe00,0.0,0.0,0.0,0.0,0.0,0.0
2026-05-25 09:32:14.122527,1779715934.122527,-1047022,-2532914,164360796,35533,78260,-1854,61,f0fdfe00,0.0,0.0,0.0,0.0,0.0,0.0
2026-05-25 09:32:14.129754,1779715934.129754,-1047022,-2532914,164360796,35533,78260,-1854,61,f0fdfe00,0.0,0.0,0.0,0.0,0.0,0.0
2026-05-25 09:32:14.135470,1779715934.135470,-1059716,-2582380,164324683,13110,75395,-21297,61,f0fdfe00,0.0,0.0,0.0,0.0,0.0,0.0
2026-05-25 09:32:14.142831,1779715934.142831,-1059716,-2582380,164324683,13110,75395,-21297,61,f0fdfe00,0.0,0.0,0.0,0.0,0.0,0.0
2026-05-25 09:32:14.149180,1779715934.149180,-1007599,-2586329,164335433,8377,70119,-15862,61,f0fefe00,0.0,0.0,0.0,0.0,0.0,0.0
2026-05-25 09:32:14.156473,1779715934.156473,-1007599,-2586329,164335433,8377,70119,-15862,61,f0fefe00,0.0,0.0,0.0,0.0,0.0,0.0
2026-05-25 09:32:14.162101,1779715934.162101,-1002315,-2586743,164362720,22390,56220,-14980,61,f0fefe00,0.0,0.0,0.0,0.0,0.0,0.0
2026-05-25 09:32:14.170004,1779715934.170004,-1002315,-2586743,164362720,22390,56220,-14980,61,f0fefe00,0.0,0.0,0.0,0.0,0.0,0.0
2026-05-25 09:32:14.176098,1779715934.176098,-1004439,-2594846,164388277,16962,58333,4123,61,f0fefe00,0.0,0.0,0.0,0.0,0.0,0.0
2026-05-25 09:32:14.183587,1779715934.183587,-1004439,-2594846,164388277,16962,58333,4123,61,f0fefe00,0.0,0.0,0.0,0.0,0.0,0.0
2026-05-25 09:32:14.189365,1779715934.189365,-1051401,-2593770,164389523,1225,37678,17812,61,f0fdfe00,0.0,0.0,0.0,0.0,0.0,0.0
2026-05-25 09:32:14.196535,1779715934.196535,-1051401,-2593770,164389523,1225,37678,17812,61,f0fdfe00,0.0,0.0,0.0,0.0,0.0,0.0
2026-05-25 09:32:14.202093,1779715934.202093,-1050158,-2612887,164402010,9633,28166,2261,61,f0fdfe00,0.0,0.0,0.0,0.0,0.0,0.0
2026-05-25 09:32:14.209228,1779715934.209228,-1050158,-2612887,164402010,9633,28166,2261,61,f0fdfe00,0.0,0.0,0.0,0.0,0.0,0.0
2026-05-25 09:32:14.214854,1779715934.214854,-1021532,-2607837,164409891,2429,13753,11121,61,f0fefe00,0.0,0.0,0.0,0.0,0.0,0.0
2026-05-25 09:32:14.222006,1779715934.222006,-1021532,-2607837,164409891,2429,13753,11121,61,f0fefe00,0.0,0.0,0.0,0.0,0.0,0.0
2026-05-25 09:32:14.227617,1779715934.227617,-1025606,-2568675,164344831,12225,-16087,-7087,61,f0fdfe00,0.0,0.0,0.0,0.0,0.0,0.0
2026-05-25 09:32:14.234732,1779715934.234732,-1025606,-2568675,164344831,12225,-16087,-7087,61,f0fdfe00,0.0,0.0,0.0,0.0,0.0,0.0
2026-05-25 09:32:14.240394,1779715934.240394,-1006229,-2476673,164331373,4960,-26550,2297,61,f0fdfe00,0.0,0.0,0.0,0.0,0.0,0.0
2026-05-25 09:32:14.247684,1779715934.247684,-1006229,-2476673,164331373,4960,-26550,2297,61,f0fdfe00,0.0,0.0,0.0,0.0,0.0,0.0
2026-05-25 09:32:14.253314,1779715934.253314,-983435,-2444403,164315530,18244,-35265,-12767,61,f0fdfe00,0.0,0.0,0.0,0.0,0.0,0.0
2026-05-25 09:32:14.260316,1779715934.260316,-983435,-2444403,164315530,18244,-35265,-12767,61,f0fdfe00,0.0,0.0,0.0,0.0,0.0,0.0
2026-05-25 09:32:14.265893,1779715934.265893,-920229,-2426068,164350321,41093,-24691,-20513,61,f0fdfe00,0.0,0.0,0.0,0.0,0.0,0.0
2026-05-25 09:32:14.273776,1779715934.273776,-920229,-2426068,164350321,41093,-24691,-20513,61,f0fdfe00,0.0,0.0,0.0,0.0,0.0,0.0
2026-05-25 09:32:14.279686,1779715934.279686,-863529,-2434678,164345250,38033,-11981,-15423,61,f0fdfe00,0.0,0.0,0.0,0.0,0.0,0.0
2026-05-25 09:32:14.287019,1779715934.287019,-863529,-2434678,164345250,38033,-11981,-15423,61,f0fdfe00,0.0,0.0,0.0,0.0,0.0,0.0
2026-05-25 09:32:14.292711,1779715934.292711,-858417,-2482660,164360167,33145,8556,-18316,61,f0fdfe00,0.0,0.0,0.0,0.0,0.0,0.0
2026-05-25 09:32:14.299862,1779715934.299862,-858417,-2482660,164360167,33145,8556,-18316,61,f0fdfe00,0.0,0.0,0.0,0.0,0.0,0.0
2026-05-25 09:32:14.305424,1779715934.305424,-895965,-2540193,164381052,18005,17308,4784,61,f0fdfe00,0.0,0.0,0.0,0.0,0.0,0.0
2026-05-25 09:32:14.312664,1779715934.312664,-895965,-2540193,164381052,18005,17308,4784,61,f0fdfe00,0.0,0.0,0.0,0.0,0.0,0.0
2026-05-25 09:32:14.318121,1779715934.318121,-950047,-2611542,164363153,8020,31274,5288,61,f0fdfe00,0.0,0.0,0.0,0.0,0.0,0.0
2026-05-25 09:32:14.325236,1779715934.325236,-950047,-2611542,164363153,8020,31274,5288,61,f0fdfe00,0.0,0.0,0.0,0.0,0.0,0.0
2026-05-25 09:32:14.330936,1779715934.330936,-958935,-2622429,164330100,26476,22729,16831,61,f0fdfe00,0.0,0.0,0.0,0.0,0.0,0.0
2026-05-25 09:32:14.338288,1779715934.338288,-958935,-2622429,164330100,26476,22729,16831,61,f0fdfe00,0.0,0.0,0.0,0.0,0.0,0.0
2026-05-25 09:32:14.343867,1779715934.343867,-948587,-2621129,164295217,31627,40263,-1183,61,f0fdfe00,0.0,0.0,0.0,0.0,0.0,0.0
2026-05-25 09:32:14.350970,1779715934.350970,-948587,-2621129,164295217,31627,40263,-1183,61,f0fdfe00,0.0,0.0,0.0,0.0,0.0,0.0
2026-05-25 09:32:14.356533,1779715934.356533,-980994,-2577602,164312257,39089,45551,13453,61,f0fdfe00,0.0,0.0,0.0,0.0,0.0,0.0
2026-05-25 09:32:14.363621,1779715934.363621,-980994,-2577602,164312257,39089,45551,13453,61,f0fdfe00,0.0,0.0,0.0,0.0,0.0,0.0
2026-05-25 09:32:14.369160,1779715934.369160,-1023450,-2530762,164333365,26500,55044,21873,61,f0fdfe00,0.0,0.0,0.0,0.0,0.0,0.0
2026-05-25 09:32:14.376246,1779715934.376246,-1023450,-2530762,164333365,26500,55044,21873,61,f0fdfe00,0.0,0.0,0.0,0.0,0.0,0.0
2026-05-25 09:32:14.382036,1779715934.382036,-1041501,-2499371,164358326,21194,60619,41911,61,f0fdfe00,0.0,0.0,0.0,0.0,0.0,0.0
2026-05-25 09:32:14.389339,1779715934.389339,-1041501,-2499371,164358326,21194,60619,41911,61,f0fdfe00,0.0,0.0,0.0,0.0,0.0,0.0
2026-05-25 09:32:14.398321,1779715934.398321,-1043858,-2481570,164366140,28249,73186,61409,61,f0fdfe00,0.0,0.0,0.0,0.0,0.0,0.0
2026-05-25 09:32:14.405504,1779715934.405504,-1043858,-2481570,164366140,28249,73186,61409,61,f0fdfe00,0.0,0.0,0.0,0.0,0.0,0.0
2026-05-25 09:32:14.411010,1779715934.411010,-1006593,-2457346,164399072,38596,73487,45707,61,f0fdfe00,0.0,0.0,0.0,0.0,0.0,0.0
2026-05-25 09:32:14.418147,1779715934.418147,-1006593,-2457346,164399072,38596,73487,45707,61,f0fdfe00,0.0,0.0,0.0,0.0,0.0,0.0
2026-05-25 09:32:14.423934,1779715934.423934,-1030197,-2488579,164346008,66532,25220,34671,61,f0fdfe00,0.0,0.0,0.0,0.0,0.0,0.0
2026-05-25 09:32:14.430992,1779715934.430992,-1030197,-2488579,164346008,66532,25220,34671,61,f0fdfe00,0.0,0.0,0.0,0.0,0.0,0.0
2026-05-25 09:32:14.436614,1779715934.436614,-1019025,-2483784,164318144,55166,9285,22319,61,f0fdfe00,0.0,0.0,0.0,0.0,0.0,0.0
2026-05-25 09:32:14.443667,1779715934.443667,-1019025,-2483784,164318144,55166,9285,22319,61,f0fdfe00,0.0,0.0,0.0,0.0,0.0,0.0
2026-05-25 09:32:14.449231,1779715934.449231,-1058712,-2511325,164298500,47954,-12665,7387,61,f0fdfe00,0.0,0.0,0.0,0.0,0.0,0.0
2026-05-25 09:32:14.456278,1779715934.456278,-1058712,-2511325,164298500,47954,-12665,7387,61,f0fdfe00,0.0,0.0,0.0,0.0,0.0,0.0
2026-05-25 09:32:14.461839,1779715934.461839,-1028925,-2513143,164331672,33124,-13485,16806,61,f0fdfe00,0.0,0.0,0.0,0.0,0.0,0.0
2026-05-25 09:32:14.469013,1779715934.469013,-1028925,-2513143,164331672,33124,-13485,16806,61,f0fdfe00,0.0,0.0,0.0,0.0,0.0,0.0
2026-05-25 09:32:14.474570,1779715934.474570,-1045039,-2503898,164357585,28598,-3097,8468,61,f0fdfe00,0.0,0.0,0.0,0.0,0.0,0.0
2026-05-25 09:32:14.481754,1779715934.481754,-1045039,-2503898,164357585,28598,-3097,8468,61,f0fdfe00,0.0,0.0,0.0,0.0,0.0,0.0
2026-05-25 09:32:14.488761,1779715934.488761,-981845,-2557686,164345629,51842,-29408,16505,61,f0fefe00,0.0,0.0,0.0,0.0,0.0,0.0
2026-05-25 09:32:14.495988,1779715934.495988,-981845,-2557686,164345629,51842,-29408,16505,61,f0fefe00,0.0,0.0,0.0,0.0,0.0,0.0
2026-05-25 09:32:14.502751,1779715934.502751,-964978,-2576393,164353276,40864,-18178,21861,61,f0fefe00,0.0,0.0,0.0,0.0,0.0,0.0
2026-05-25 09:32:14.509968,1779715934.509968,-964978,-2576393,164353276,40864,-18178,21861,61,f0fefe00,0.0,0.0,0.0,0.0,0.0,0.0
2026-05-25 09:32:14.516409,1779715934.516409,-970262,-2621013,164360233,15377,-17535,16231,61,f0fefe00,0.0,0.0,0.0,0.0,0.0,0.0
2026-05-25 09:32:14.524413,1779715934.524413,-970262,-2621013,164360233,15377,-17535,16231,61,f0fefe00,0.0,0.0,0.0,0.0,0.0,0.0
2026-05-25 09:32:14.529969,1779715934.529969,-938770,-2571955,164352646,-900,-19998,21590,61,f0fdfe00,0.0,0.0,0.0,0.0,0.0,0.0
2026-05-25 09:32:14.536989,1779715934.536989,-938770,-2571955,164352646,-900,-19998,21590,61,f0fdfe00,0.0,0.0,0.0,0.0,0.0,0.0
2026-05-25 09:32:14.542531,1779715934.542531,-941460,-2525182,164266542,-17018,-1431,14466,61,f0fdfe00,0.0,0.0,0.0,0.0,0.0,0.0
2026-05-25 09:32:14.549568,1779715934.549568,-941460,-2525182,164266542,-17018,-1431,14466,61,f0fdfe00,0.0,0.0,0.0,0.0,0.0,0.0
2026-05-25 09:32:14.555635,1779715934.555635,-909965,-2466435,164283781,928,20341,23224,61,f0fdfe00,0.0,0.0,0.0,0.0,0.0,0.0
2026-05-25 09:32:14.562675,1779715934.562675,-909965,-2466435,164283781,928,20341,23224,61,f0fdfe00,0.0,0.0,0.0,0.0,0.0,0.0
2026-05-25 09:32:14.568287,1779715934.568287,-955239,-2505791,164262391,-12724,62717,22859,61,f0fdfe00,0.0,0.0,0.0,0.0,0.0,0.0
2026-05-25 09:32:14.575424,1779715934.575424,-955239,-2505791,164262391,-12724,62717,22859,61,f0fdfe00,0.0,0.0,0.0,0.0,0.0,0.0
2026-05-25 09:32:14.581272,1779715934.581272,-966751,-2573841,164354040,-14522,73690,15191,61,f0fdfe00,0.0,0.0,0.0,0.0,0.0,0.0
2026-05-25 09:32:14.588363,1779715934.588363,-966751,-2573841,164354040,-14522,73690,15191,61,f0fdfe00,0.0,0.0,0.0,0.0,0.0,0.0
2026-05-25 09:32:14.593824,1779715934.593824,-1043309,-2604537,164365906,2381,67211,158,61,f0fefe00,0.0,0.0,0.0,0.0,0.0,0.0
2026-05-25 09:32:14.600892,1779715934.600892,-1043309,-2604537,164365906,2381,67211,158,61,f0fefe00,0.0,0.0,0.0,0.0,0.0,0.0
2026-05-25 09:32:14.606551,1779715934.606551,-1073761,-2598978,164404415,13031,42047,-2670,61,f0fefe00,0.0,0.0,0.0,0.0,0.0,0.0
2026-05-25 09:32:14.613598,1779715934.613598,-1073761,-2598978,164404415,13031,42047,-2670,61,f0fefe00,0.0,0.0,0.0,0.0,0.0,0.0
2026-05-25 09:32:14.619163,1779715934.619163,-1132466,-2515489,164389339,40317,18529,9140,61,f0fdfe00,0.0,0.0,0.0,0.0,0.0,0.0
2026-05-25 09:32:14.626323,1779715934.626323,-1132466,-2515489,164389339,40317,18529,9140,61,f0fdfe00,0.0,0.0,0.0,0.0,0.0,0.0
2026-05-25 09:32:14.631844,1779715934.631844,-1104326,-2511685,164403484,15919,-6156,17550,61,f0fdfe00,0.0,0.0,0.0,0.0,0.0,0.0
2026-05-25 09:32:14.639136,1779715934.639136,-1104326,-2511685,164403484,15919,-6156,17550,61,f0fdfe00,0.0,0.0,0.0,0.0,0.0,0.0
2026-05-25 09:32:14.646028,1779715934.646028,-1048068,-2483326,164380693,4535,-37020,30451,61,f0fdfe00,0.0,0.0,0.0,0.0,0.0,0.0
2026-05-25 09:32:14.653264,1779715934.653264,-1048068,-2483326,164380693,4535,-37020,30451,61,f0fdfe00,0.0,0.0,0.0,0.0,0.0,0.0
2026-05-25 09:32:14.659665,1779715934.659665,-914596,-2536818,164386416,-19114,-36417,20400,61,f0fdfe00,0.0,0.0,0.0,0.0,0.0,0.0
2026-05-25 09:32:14.667003,1779715934.667003,-914596,-2536818,164386416,-19114,-36417,20400,61,f0fdfe00,0.0,0.0,0.0,0.0,0.0,0.0
2026-05-25 09:32:14.672601,1779715934.672601,-770329,-2499398,164346898,-15392,-27036,29067,61,f0fdfe00,0.0,0.0,0.0,0.0,0.0,0.0
2026-05-25 09:32:14.679674,1779715934.679674,-770329,-2499398,164346898,-15392,-27036,29067,61,f0fdfe00,0.0,0.0,0.0,0.0,0.0,0.0
2026-05-25 09:32:14.685154,1779715934.685154,-700382,-2574320,164345142,57,993,8961,61,f0fdfe00,0.0,0.0,0.0,0.0,0.0,0.0
2026-05-25 09:32:14.693452,1779715934.693452,-700382,-2574320,164345142,57,993,8961,61,f0fdfe00,0.0,0.0,0.0,0.0,0.0,0.0
2026-05-25 09:32:14.699759,1779715934.699759,-784486,-2593658,164352056,24285,43674,23646,61,f0fdfe00,0.0,0.0,0.0,0.0,0.0,0.0
2026-05-25 09:32:14.707240,1779715934.707240,-784486,-2593658,164352056,24285,43674,23646,61,f0fdfe00,0.0,0.0,0.0,0.0,0.0,0.0
2026-05-25 09:32:14.713291,1779715934.713291,-960224,-2595207,164434155,67330,57273,2282,61,f0fdfe00,0.0,0.0,0.0,0.0,0.0,0.0
2026-05-25 09:32:14.722786,1779715934.722786,-960224,-2595207,164434155,67330,57273,2282,61,f0fdfe00,0.0,0.0,0.0,0.0,0.0,0.0
2026-05-25 09:32:14.728880,1779715934.728880,-1164603,-2578009,164459803,72592,42303,3683,61,f0fdfe00,0.0,0.0,0.0,0.0,0.0,0.0
2026-05-25 09:32:14.736188,1779715934.736188,-1164603,-2578009,164459803,72592,42303,3683,61,f0fdfe00,0.0,0.0,0.0,0.0,0.0,0.0
2026-05-25 09:32:14.741973,1779715934.741973,-1232421,-2529063,164495580,73104,-15217,-1758,61,f0fdfe00,0.0,0.0,0.0,0.0,0.0,0.0
2026-05-25 09:32:14.749054,1779715934.749054,-1232421,-2529063,164495580,73104,-15217,-1758,61,f0fdfe00,0.0,0.0,0.0,0.0,0.0,0.0
2026-05-25 09:32:14.754735,1779715934.754735,-1230830,-2533270,164476018,43177,-54276,-5536,61,f0fdfe00,0.0,0.0,0.0,0.0,0.0,0.0
2026-05-25 09:32:14.762040,1779715934.762040,-1230830,-2533270,164476018,43177,-54276,-5536,61,f0fdfe00,0.0,0.0,0.0,0.0,0.0,0.0
2026-05-25 09:32:14.767738,1779715934.767738,-1082670,-2506032,164389351,25230,-90101,-2776,61,f0fdfe00,0.0,0.0,0.0,0.0,0.0,0.0
2026-05-25 09:32:14.774807,1779715934.774807,-1082670,-2506032,164389351,25230,-90101,-2776,61,f0fdfe00,0.0,0.0,0.0,0.0,0.0,0.0
2026-05-25 09:32:14.780490,1779715934.780490,-976646,-2537110,164356666,11848,-68904,-15699,61,f0fdfe00,0.0,0.0,0.0,0.0,0.0,0.0
2026-05-25 09:32:14.787876,1779715934.787876,-976646,-2537110,164356666,11848,-68904,-15699,61,f0fdfe00,0.0,0.0,0.0,0.0,0.0,0.0
2026-05-25 09:32:14.793530,1779715934.793530,-788344,-2542789,164302805,19391,-48653,-4022,61,f0fdfe00,0.0,0.0,0.0,0.0,0.0,0.0
2026-05-25 09:32:14.800675,1779715934.800675,-788344,-2542789,164302805,19391,-48653,-4022,61,f0fdfe00,0.0,0.0,0.0,0.0,0.0,0.0
2026-05-25 09:32:14.806870,1779715934.806870,-740872,-2528855,164267502,42104,13505,196,61,f0fdfe00,0.0,0.0,0.0,0.0,0.0,0.0
2026-05-25 09:32:14.814655,1779715934.814655,-740872,-2528855,164267502,42104,13505,196,61,f0fdfe00,0.0,0.0,0.0,0.0,0.0,0.0
2026-05-25 09:32:14.820445,1779715934.820445,-734761,-2548802,164226085,17884,66057,3073,61,f0fdfe00,0.0,0.0,0.0,0.0,0.0,0.0
2026-05-25 09:32:14.831134,1779715934.831134,-734761,-2548802,164226085,17884,66057,3073,61,f0fdfe00,0.0,0.0,0.0,0.0,0.0,0.0
2026-05-25 09:32:14.836931,1779715934.836931,-873050,-2601533,164396102,25500,106711,80,61,f0fdfe00,0.0,0.0,0.0,0.0,0.0,0.0
2026-05-25 09:32:14.844023,1779715934.844023,-873050,-2601533,164396102,25500,106711,80,61,f0fdfe00,0.0,0.0,0.0,0.0,0.0,0.0
2026-05-25 09:32:14.849772,1779715934.849772,-1016150,-2547344,164291194,12305,85082,9785,61,f0fdfe00,0.0,0.0,0.0,0.0,0.0,0.0
2026-05-25 09:32:14.856996,1779715934.856996,-1016150,-2547344,164291194,12305,85082,9785,61,f0fdfe00,0.0,0.0,0.0,0.0,0.0,0.0
2026-05-25 09:32:14.862637,1779715934.862637,-1194879,-2608205,164556129,22848,64489,-5183,61,f0fdfe00,0.0,0.0,0.0,0.0,0.0,0.0
2026-05-25 09:32:14.869709,1779715934.869709,-1194879,-2608205,164556129,22848,64489,-5183,61,f0fdfe00,0.0,0.0,0.0,0.0,0.0,0.0
2026-05-25 09:32:14.875239,1779715934.875239,-1220251,-2467372,164367329,7726,-17592,-5253,61,f0fdfe00,0.0,0.0,0.0,0.0,0.0,0.0
2026-05-25 09:32:14.882371,1779715934.882371,-1220251,-2467372,164367329,7726,-17592,-5253,61,f0fdfe00,0.0,0.0,0.0,0.0,0.0,0.0
2026-05-25 09:32:14.887991,1779715934.887991,-1132939,-2569522,164568914,48533,-42532,-6235,61,f0fdfe00,0.0,0.0,0.0,0.0,0.0,0.0
2026-05-25 09:32:14.895162,1779715934.895162,-1132939,-2569522,164568914,48533,-42532,-6235,61,f0fdfe00,0.0,0.0,0.0,0.0,0.0,0.0
2026-05-25 09:32:14.900979,1779715934.900979,-1002421,-2504455,164332552,38594,-102509,27949,61,f0fdfe00,0.0,0.0,0.0,0.0,0.0,0.0
2026-05-25 09:32:14.908050,1779715934.908050,-1002421,-2504455,164332552,38594,-102509,27949,61,f0fdfe00,0.0,0.0,0.0,0.0,0.0,0.0
2026-05-25 09:32:14.913581,1779715934.913581,-813058,-2648039,164389188,61895,-50390,45288,61,f0fdfe00,0.0,0.0,0.0,0.0,0.0,0.0
2026-05-25 09:32:14.920710,1779715934.920710,-813058,-2648039,164389188,61895,-50390,45288,61,f0fdfe00,0.0,0.0,0.0,0.0,0.0,0.0
2026-05-25 09:32:14.926253,1779715934.926253,-815210,-2571378,164279835,12594,-34568,47648,61,f0fdfe00,0.0,0.0,0.0,0.0,0.0,0.0
2026-05-25 09:32:14.933611,1779715934.933611,-815210,-2571378,164279835,12594,-34568,47648,61,f0fdfe00,0.0,0.0,0.0,0.0,0.0,0.0
2026-05-25 09:32:14.939127,1779715934.939127,-686899,-2686807,164348117,31543,38437,33797,61,f0fdfe00,0.0,0.0,0.0,0.0,0.0,0.0
2026-05-25 09:32:14.946282,1779715934.946282,-686899,-2686807,164348117,31543,38437,33797,61,f0fdfe00,0.0,0.0,0.0,0.0,0.0,0.0
2026-05-25 09:32:14.951850,1779715934.951850,-891834,-2558208,164320852,41652,51406,22754,61,f0fdfe00,0.0,0.0,0.0,0.0,0.0,0.0
2026-05-25 09:32:14.959162,1779715934.959162,-891834,-2558208,164320852,41652,51406,22754,61,f0fdfe00,0.0,0.0,0.0,0.0,0.0,0.0
2026-05-25 09:32:14.964878,1779715934.964878,-913351,-2587357,164365764,39944,95031,1165,61,f0fdfe00,0.0,0.0,0.0,0.0,0.0,0.0
2026-05-25 09:32:14.972174,1779715934.972174,-913351,-2587357,164365764,39944,95031,1165,61,f0fdfe00,0.0,0.0,0.0,0.0,0.0,0.0
2026-05-25 09:32:14.978445,1779715934.978445,-1161135,-2449616,164427199,2691,92155,-8221,61,f0fdfe00,0.0,0.0,0.0,0.0,0.0,0.0
2026-05-25 09:32:14.985558,1779715934.985558,-1161135,-2449616,164427199,2691,92155,-8221,61,f0fdfe00,0.0,0.0,0.0,0.0,0.0,0.0
2026-05-25 09:32:14.991237,1779715934.991237,-1140169,-2497588,164522226,-27437,55726,-41272,61,f0fdfe00,0.0,0.0,0.0,0.0,0.0,0.0
2026-05-25 09:32:14.998259,1779715934.998259,-1140169,-2497588,164522226,-27437,55726,-41272,61,f0fdfe00,0.0,0.0,0.0,0.0,0.0,0.0
2026-05-25 09:32:15.003994,1779715935.003994,-1199700,-2493549,164499486,-18295,30829,-36275,61,f0fdfe00,0.0,0.0,0.0,0.0,0.0,0.0
2026-05-25 09:32:15.011058,1779715935.011058,-1199700,-2493549,164499486,-18295,30829,-36275,61,f0fdfe00,0.0,0.0,0.0,0.0,0.0,0.0
2026-05-25 09:32:15.016629,1779715935.016629,-1016938,-2536068,164442577,-1178,-19514,-36025,61,f0fdfe00,0.0,0.0,0.0,0.0,0.0,0.0
2026-05-25 09:32:15.023688,1779715935.023688,-1016938,-2536068,164442577,-1178,-19514,-36025,61,f0fdfe00,0.0,0.0,0.0,0.0,0.0,0.0
2026-05-25 09:32:15.029245,1779715935.029245,-941225,-2534152,164345961,1074,-11043,-1113,61,f0fdfe00,0.0,0.0,0.0,0.0,0.0,0.0
2026-05-25 09:32:15.036622,1779715935.036622,-941225,-2534152,164345961,1074,-11043,-1113,61,f0fdfe00,0.0,0.0,0.0,0.0,0.0,0.0
2026-05-25 09:32:15.042319,1779715935.042319,-823974,-2526658,164292243,14359,-32548,21033,61,f0fdfe00,0.0,0.0,0.0,0.0,0.0,0.0
2026-05-25 09:32:15.072201,1779715935.072201,-823974,-2526658,164292243,14359,-32548,21033,61,f0fdfe00,0.0,0.0,0.0,0.0,0.0,0.0
2026-05-25 09:32:15.088680,1779715935.088680,-846812,-2570875,164277743,15137,14679,40894,61,f0fdfe00,0.0,0.0,0.0,0.0,0.0,0.0
2026-05-25 09:32:15.096051,1779715935.096051,-846812,-2570875,164277743,15137,14679,40894,61,f0fdfe00,0.0,0.0,0.0,0.0,0.0,0.0
2026-05-25 09:32:15.101677,1779715935.101677,-867557,-2566207,164266582,5355,42717,34734,61,f0fdfe00,0.0,0.0,0.0,0.0,0.0,0.0
2026-05-25 09:32:15.108831,1779715935.108831,-867557,-2566207,164266582,5355,42717,34734,61,f0fdfe00,0.0,0.0,0.0,0.0,0.0,0.0
2026-05-25 09:32:15.114364,1779715935.114364,-930085,-2564229,164302745,27705,98872,24095,61,f0fdfe00,0.0,0.0,0.0,0.0,0.0,0.0
2026-05-25 09:32:15.121414,1779715935.121414,-930085,-2564229,164302745,27705,98872,24095,61,f0fdfe00,0.0,0.0,0.0,0.0,0.0,0.0
2026-05-25 09:32:15.126883,1779715935.126883,-974721,-2500305,164323645,10144,80619,-498,61,f0fdfe00,0.0,0.0,0.0,0.0,0.0,0.0
2026-05-25 09:32:15.134412,1779715935.134412,-974721,-2500305,164323645,10144,80619,-498,61,f0fdfe00,0.0,0.0,0.0,0.0,0.0,0.0
2026-05-25 09:32:15.140109,1779715935.140109,-1018030,-2459049,164371811,38051,95475,-16125,61,f0fdfe00,0.0,0.0,0.0,0.0,0.0,0.0
2026-05-25 09:32:15.147392,1779715935.147392,-1018030,-2459049,164371811,38051,95475,-16125,61,f0fdfe00,0.0,0.0,0.0,0.0,0.0,0.0
2026-05-25 09:32:15.153237,1779715935.153237,-1062312,-2393680,164463382,59586,36174,5173,61,f0fdfe00,0.0,0.0,0.0,0.0,0.0,0.0
2026-05-25 09:32:15.160359,1779715935.160359,-1062312,-2393680,164463382,59586,36174,5173,61,f0fdfe00,0.0,0.0,0.0,0.0,0.0,0.0
2026-05-25 09:32:15.165925,1779715935.165925,-1133119,-2345250,164441035,82120,-6461,9422,61,f0fdfe00,0.0,0.0,0.0,0.0,0.0,0.0
2026-05-25 09:32:15.172981,1779715935.172981,-1133119,-2345250,164441035,82120,-6461,9422,61,f0fdfe00,0.0,0.0,0.0,0.0,0.0,0.0
2026-05-25 09:32:15.178492,1779715935.178492,-1135025,-2362270,164438256,57437,-56983,36713,61,f0fdfe00,0.0,0.0,0.0,0.0,0.0,0.0
2026-05-25 09:32:15.185664,1779715935.185664,-1135025,-2362270,164438256,57437,-56983,36713,61,f0fdfe00,0.0,0.0,0.0,0.0,0.0,0.0
2026-05-25 09:32:15.191177,1779715935.191177,-1050762,-2464009,164360191,1454,-78271,12154,61,f0fcfe00,0.0,0.0,0.0,0.0,0.0,0.0
2026-05-25 09:32:15.198192,1779715935.198192,-1050762,-2464009,164360191,1454,-78271,12154,61,f0fcfe00,0.0,0.0,0.0,0.0,0.0,0.0
2026-05-25 09:32:15.203947,1779715935.203947,-927307,-2612578,164324688,-33433,-64317,-3143,61,f0fcfe00,0.0,0.0,0.0,0.0,0.0,0.0
2026-05-25 09:32:15.211092,1779715935.211092,-927307,-2612578,164324688,-33433,-64317,-3143,61,f0fcfe00,0.0,0.0,0.0,0.0,0.0,0.0
2026-05-25 09:32:15.216641,1779715935.216641,-791142,-2765430,164271318,-20843,-38165,-8462,61,f0fcfe00,0.0,0.0,0.0,0.0,0.0,0.0
2026-05-25 09:32:15.223812,1779715935.223812,-791142,-2765430,164271318,-20843,-38165,-8462,61,f0fcfe00,0.0,0.0,0.0,0.0,0.0,0.0
2026-05-25 09:32:15.229334,1779715935.229334,-690214,-2802808,164227373,5220,17524,-309,61,f0fcfe00,0.0,0.0,0.0,0.0,0.0,0.0
2026-05-25 09:32:15.236514,1779715935.236514,-690214,-2802808,164227373,5220,17524,-309,61,f0fcfe00,0.0,0.0,0.0,0.0,0.0,0.0
2026-05-25 09:32:15.242112,1779715935.242112,-742947,-2780135,164269038,55582,79413,3717,61,f0fdfe00,0.0,0.0,0.0,0.0,0.0,0.0
2026-05-25 09:32:15.249134,1779715935.249134,-742947,-2780135,164269038,55582,79413,3717,61,f0fdfe00,0.0,0.0,0.0,0.0,0.0,0.0
2026-05-25 09:32:15.254797,1779715935.254797,-858998,-2646373,164294954,85012,121286,25552,61,f0fdfe00,0.0,0.0,0.0,0.0,0.0,0.0
2026-05-25 09:32:15.261892,1779715935.261892,-858998,-2646373,164294954,85012,121286,25552,61,f0fdfe00,0.0,0.0,0.0,0.0,0.0,0.0
2026-05-25 09:32:15.267494,1779715935.267494,-1094179,-2484297,164397467,87240,143651,18130,61,f0fdfe00,0.0,0.0,0.0,0.0,0.0,0.0
2026-05-25 09:32:15.274714,1779715935.274714,-1094179,-2484297,164397467,87240,143651,18130,61,f0fdfe00,0.0,0.0,0.0,0.0,0.0,0.0
2026-05-25 09:32:15.291861,1779715935.291861,-1225540,-2368362,164445230,53402,117844,20203,61,f0fdfe00,0.0,0.0,0.0,0.0,0.0,0.0
2026-05-25 09:32:15.305630,1779715935.305630,-1225540,-2368362,164445230,53402,117844,20203,61,f0fdfe00,0.0,0.0,0.0,0.0,0.0,0.0
2026-05-25 09:32:15.323103,1779715935.323103,-1221940,-2296087,164490707,25884,67020,-2049,61,f0fdfe00,0.0,0.0,0.0,0.0,0.0,0.0
2026-05-25 09:32:15.352100,1779715935.352100,-1221940,-2296087,164490707,25884,67020,-2049,61,f0fdfe00,0.0,0.0,0.0,0.0,0.0,0.0
2026-05-25 09:32:15.365725,1779715935.365725,-1074866,-2301742,164422776,14902,18245,1082,61,f0fdfe00,0.0,0.0,0.0,0.0,0.0,0.0
2026-05-25 09:32:15.381066,1779715935.381066,-1074866,-2301742,164422776,14902,18245,1082,61,f0fdfe00,0.0,0.0,0.0,0.0,0.0,0.0
2026-05-25 09:32:15.392471,1779715935.392471,-882666,-2390890,164355204,16910,15435,-9437,61,f0fdfe00,0.0,0.0,0.0,0.0,0.0,0.0
2026-05-25 09:32:15.401526,1779715935.401526,-882666,-2390890,164355204,16910,15435,-9437,61,f0fdfe00,0.0,0.0,0.0,0.0,0.0,0.0
2026-05-25 09:32:15.411448,1779715935.411448,-799523,-2482777,164252856,30351,28005,-13534,61,f0fdfe00,0.0,0.0,0.0,0.0,0.0,0.0
2026-05-25 09:32:15.420580,1779715935.420580,-799523,-2482777,164252856,30351,28005,-13534,61,f0fdfe00,0.0,0.0,0.0,0.0,0.0,0.0
2026-05-25 09:32:15.429098,1779715935.429098,-872213,-2534670,164229327,11622,65215,-14776,61,f0fdfe00,0.0,0.0,0.0,0.0,0.0,0.0
2026-05-25 09:32:15.438398,1779715935.438398,-872213,-2534670,164229327,11622,65215,-14776,61,f0fdfe00,0.0,0.0,0.0,0.0,0.0,0.0
2026-05-25 09:32:15.445813,1779715935.445813,-976753,-2558120,164309010,6492,105757,-23349,61,f0fdfe00,0.0,0.0,0.0,0.0,0.0,0.0
2026-05-25 09:32:15.457623,1779715935.457623,-976753,-2558120,164309010,6492,105757,-23349,61,f0fdfe00,0.0,0.0,0.0,0.0,0.0,0.0
2026-05-25 09:32:15.464764,1779715935.464764,-1107503,-2608075,164540639,-2848,112000,3619,61,f0fdfe00,0.0,0.0,0.0,0.0,0.0,0.0
2026-05-25 09:32:15.477752,1779715935.477752,-1107503,-2608075,164540639,-2848,112000,3619,61,f0fdfe00,0.0,0.0,0.0,0.0,0.0,0.0
2026-05-25 09:32:15.492264,1779715935.492264,-1124846,-2561966,164452607,27255,62772,3931,61,f0fcfe00,0.0,0.0,0.0,0.0,0.0,0.0
2026-05-25 09:32:15.510178,1779715935.510178,-1124846,-2561966,164452607,27255,62772,3931,61,f0fcfe00,0.0,0.0,0.0,0.0,0.0,0.0
2026-05-25 09:32:15.524330,1779715935.524330,-1209158,-2549078,164632243,67985,16154,16406,61,f0fcfe00,0.0,0.0,0.0,0.0,0.0,0.0
2026-05-25 09:32:15.536387,1779715935.536387,-1209158,-2549078,164632243,67985,16154,16406,61,f0fcfe00,0.0,0.0,0.0,0.0,0.0,0.0
2026-05-25 09:32:15.544816,1779715935.544816,-1116701,-2424841,164321013,54413,-55588,-10876,61,f0fdfe00,0.0,0.0,0.0,0.0,0.0,0.0
2026-05-25 09:32:15.564917,1779715935.564917,-1116701,-2424841,164321013,54413,-55588,-10876,61,f0fdfe00,0.0,0.0,0.0,0.0,0.0,0.0
2026-05-25 09:32:15.580460,1779715935.580460,-1087137,-2448406,164532818,43423,-27228,-8847,61,f0fdfe00,0.0,0.0,0.0,0.0,0.0,0.0
2026-05-25 09:32:15.599486,1779715935.599486,-1087137,-2448406,164532818,43423,-27228,-8847,61,f0fdfe00,0.0,0.0,0.0,0.0,0.0,0.0
2026-05-25 09:32:15.613862,1779715935.613862,-917755,-2379066,164227603,8872,-86280,6528,61,f0fdfe00,0.0,0.0,0.0,0.0,0.0,0.0
2026-05-25 09:32:15.623592,1779715935.623592,-917755,-2379066,164227603,8872,-86280,6528,61,f0fdfe00,0.0,0.0,0.0,0.0,0.0,0.0
2026-05-25 09:32:15.631043,1779715935.631043,-767528,-2525171,164407729,49723,-13107,16866,61,f0fdfe00,0.0,0.0,0.0,0.0,0.0,0.0
2026-05-25 09:32:15.640244,1779715935.640244,-767528,-2525171,164407729,49723,-13107,16866,61,f0fdfe00,0.0,0.0,0.0,0.0,0.0,0.0
2026-05-25 09:32:15.652612,1779715935.652612,-755647,-2428141,164212887,35932,-42077,19864,61,f0fdfe00,0.0,0.0,0.0,0.0,0.0,0.0
2026-05-25 09:32:15.670065,1779715935.670065,-755647,-2428141,164212887,35932,-42077,19864,61,f0fdfe00,0.0,0.0,0.0,0.0,0.0,0.0
2026-05-25 09:32:15.677798,1779715935.677798,-669547,-2548801,164341771,87811,65036,5144,61,f0fdfe00,0.0,0.0,0.0,0.0,0.0,0.0
2026-05-25 09:32:15.694451,1779715935.694451,-669547,-2548801,164341771,87811,65036,5144,61,f0fdfe00,0.0,0.0,0.0,0.0,0.0,0.0
2026-05-25 09:32:15.708734,1779715935.708734,-845018,-2444177,164223594,58757,63610,-3828,61,f0fcfe00,0.0,0.0,0.0,0.0,0.0,0.0
2026-05-25 09:32:15.719060,1779715935.719060,-845018,-2444177,164223594,58757,63610,-3828,61,f0fcfe00,0.0,0.0,0.0,0.0,0.0,0.0
2026-05-25 09:32:15.732585,1779715935.732585,-804834,-2565826,164355719,45729,124501,18151,61,f0fdfe00,0.0,0.0,0.0,0.0,0.0,0.0
2026-05-25 09:32:15.742290,1779715935.742290,-804834,-2565826,164355719,45729,124501,18151,61,f0fdfe00,0.0,0.0,0.0,0.0,0.0,0.0
2026-05-25 09:32:15.750732,1779715935.750732,-1051537,-2447286,164311111,-381,112261,35996,61,f0fdfe00,0.0,0.0,0.0,0.0,0.0,0.0
2026-05-25 09:32:15.760426,1779715935.760426,-1051537,-2447286,164311111,-381,112261,35996,61,f0fdfe00,0.0,0.0,0.0,0.0,0.0,0.0
2026-05-25 09:32:15.768261,1779715935.768261,-995302,-2514645,164450525,-7429,100615,22993,61,f0fdfe00,0.0,0.0,0.0,0.0,0.0,0.0
2026-05-25 09:32:15.778058,1779715935.778058,-995302,-2514645,164450525,-7429,100615,22993,61,f0fdfe00,0.0,0.0,0.0,0.0,0.0,0.0
2026-05-25 09:32:15.785966,1779715935.785966,-1196844,-2435858,164435929,-36447,58044,11773,61,f0fdfe00,0.0,0.0,0.0,0.0,0.0,0.0
2026-05-25 09:32:15.795657,1779715935.795657,-1196844,-2435858,164435929,-36447,58044,11773,61,f0fdfe00,0.0,0.0,0.0,0.0,0.0,0.0
2026-05-25 09:32:15.803256,1779715935.803256,-1043188,-2554267,164457212,-41041,37345,-9861,61,f0fdfe00,0.0,0.0,0.0,0.0,0.0,0.0
2026-05-25 09:32:15.813194,1779715935.813194,-1043188,-2554267,164457212,-41041,37345,-9861,61,f0fdfe00,0.0,0.0,0.0,0.0,0.0,0.0
2026-05-25 09:32:15.823407,1779715935.823407,-1108152,-2560244,164417442,-16271,22040,-3883,61,f0fdfe00,0.0,0.0,0.0,0.0,0.0,0.0
2026-05-25 09:32:15.834521,1779715935.834521,-1108152,-2560244,164417442,-16271,22040,-3883,61,f0fdfe00,0.0,0.0,0.0,0.0,0.0,0.0
2026-05-25 09:32:15.844432,1779715935.844432,-894852,-2664075,164408623,40646,17150,3572,61,f0fdfe00,0.0,0.0,0.0,0.0,0.0,0.0
2026-05-25 09:32:15.853884,1779715935.853884,-894852,-2664075,164408623,40646,17150,3572,61,f0fdfe00,0.0,0.0,0.0,0.0,0.0,0.0
2026-05-25 09:32:15.870294,1779715935.870294,-923167,-2560361,164353335,59425,36077,4770,61,f0fdfe00,0.0,0.0,0.0,0.0,0.0,0.0
2026-05-25 09:32:15.889379,1779715935.889379,-923167,-2560361,164353335,59425,36077,4770,61,f0fdfe00,0.0,0.0,0.0,0.0,0.0,0.0
2026-05-25 09:32:15.903828,1779715935.903828,-808272,-2491654,164369411,43971,63903,3057,61,f0fdfe00,0.0,0.0,0.0,0.0,0.0,0.0
2026-05-25 09:32:15.921285,1779715935.921285,-808272,-2491654,164369411,43971,63903,3057,61,f0fdfe00,0.0,0.0,0.0,0.0,0.0,0.0
2026-05-25 09:32:15.935125,1779715935.935125,-1004785,-2382684,164332042,24717,79718,8095,61,f0fdfe00,0.0,0.0,0.0,0.0,0.0,0.0
2026-05-25 09:32:15.945165,1779715935.945165,-1004785,-2382684,164332042,24717,79718,8095,61,f0fdfe00,0.0,0.0,0.0,0.0,0.0,0.0
2026-05-25 09:32:15.960129,1779715935.960129,-1005010,-2404686,164448779,1047,59810,-6030,61,f0fdfe00,0.0,0.0,0.0,0.0,0.0,0.0
2026-05-25 09:32:15.971295,1779715935.971295,-1005010,-2404686,164448779,1047,59810,-6030,61,f0fdfe00,0.0,0.0,0.0,0.0,0.0,0.0
2026-05-25 09:32:15.979461,1779715935.979461,-1155804,-2388873,164421020,-1810,37344,-6714,61,f0fdfe00,0.0,0.0,0.0,0.0,0.0,0.0
2026-05-25 09:32:15.992455,1779715935.992455,-1155804,-2388873,164421020,-1810,37344,-6714,61,f0fdfe00,0.0,0.0,0.0,0.0,0.0,0.0
2026-05-25 09:32:16.001057,1779715936.001057,-1034258,-2443627,164453616,15852,-24421,-24170,61,f0fcfe00,0.0,0.0,0.0,0.0,0.0,0.0
2026-05-25 09:32:16.011452,1779715936.011452,-1034258,-2443627,164453616,15852,-24421,-24170,61,f0fcfe00,0.0,0.0,0.0,0.0,0.0,0.0
2026-05-25 09:32:16.019056,1779715936.019056,-1040048,-2525014,164359018,20513,-22120,-10311,61,f0fcfe00,0.0,0.0,0.0,0.0,0.0,0.0
2026-05-25 09:32:16.028473,1779715936.028473,-1040048,-2525014,164359018,20513,-22120,-10311,61,f0fcfe00,0.0,0.0,0.0,0.0,0.0,0.0
2026-05-25 09:32:16.036294,1779715936.036294,-888178,-2639408,164308147,49863,-53314,-19246,61,f0fdfe00,0.0,0.0,0.0,0.0,0.0,0.0
2026-05-25 09:32:16.045731,1779715936.045731,-888178,-2639408,164308147,49863,-53314,-19246,61,f0fdfe00,0.0,0.0,0.0,0.0,0.0,0.0
2026-05-25 09:32:16.053282,1779715936.053282,-900974,-2707408,164278763,35137,4855,-13875,61,f0fcfe00,0.0,0.0,0.0,0.0,0.0,0.0
2026-05-25 09:32:16.065318,1779715936.065318,-900974,-2707408,164278763,35137,4855,-13875,61,f0fcfe00,0.0,0.0,0.0,0.0,0.0,0.0
2026-05-25 09:32:16.074448,1779715936.074448,-834208,-2761969,164276059,43726,5885,-13939,61,f0fcfe00,0.0,0.0,0.0,0.0,0.0,0.0
2026-05-25 09:32:16.084079,1779715936.084079,-834208,-2761969,164276059,43726,5885,-13939,61,f0fcfe00,0.0,0.0,0.0,0.0,0.0,0.0
2026-05-25 09:32:16.091946,1779715936.091946,-909762,-2714271,164324654,60699,47196,12238,61,f0fcfe00,0.0,0.0,0.0,0.0,0.0,0.0
2026-05-25 09:32:16.106018,1779715936.106018,-909762,-2714271,164324654,60699,47196,12238,61,f0fcfe00,0.0,0.0,0.0,0.0,0.0,0.0
2026-05-25 09:32:16.122364,1779715936.122364,-941301,-2694443,164313327,62059,28426,18655,61,f0fcfe00,0.0,0.0,0.0,0.0,0.0,0.0
2026-05-25 09:32:16.142102,1779715936.142102,-941301,-2694443,164313327,62059,28426,18655,61,f0fcfe00,0.0,0.0,0.0,0.0,0.0,0.0
2026-05-25 09:32:16.152566,1779715936.152566,-1040132,-2602979,164343834,87545,52209,27866,61,f0fdfe00,0.0,0.0,0.0,0.0,0.0,0.0
2026-05-25 09:32:16.162668,1779715936.162668,-1040132,-2602979,164343834,87545,52209,27866,61,f0fdfe00,0.0,0.0,0.0,0.0,0.0,0.0
2026-05-25 09:32:16.174543,1779715936.174543,-1041944,-2524841,164369303,39317,40079,17662,61,f0fdfe00,0.0,0.0,0.0,0.0,0.0,0.0
2026-05-25 09:32:16.184112,1779715936.184112,-1041944,-2524841,164369303,39317,40079,17662,61,f0fdfe00,0.0,0.0,0.0,0.0,0.0,0.0
2026-05-25 09:32:16.190983,1779715936.190983,-1020692,-2485606,164379291,29472,74588,-7449,61,f0fdfe00,0.0,0.0,0.0,0.0,0.0,0.0
2026-05-25 09:32:16.199192,1779715936.199192,-1020692,-2485606,164379291,29472,74588,-7449,61,f0fdfe00,0.0,0.0,0.0,0.0,0.0,0.0
2026-05-25 09:32:16.205939,1779715936.205939,-965840,-2477907,164387541,7346,57806,2561,61,f0fcfe00,0.0,0.0,0.0,0.0,0.0,0.0
2026-05-25 09:32:16.214337,1779715936.214337,-965840,-2477907,164387541,7346,57806,2561,61,f0fcfe00,0.0,0.0,0.0,0.0,0.0,0.0
2026-05-25 09:32:16.221179,1779715936.221179,-949531,-2531285,164356031,31117,51176,5570,61,f0fcfe00,0.0,0.0,0.0,0.0,0.0,0.0
2026-05-25 09:32:16.229643,1779715936.229643,-949531,-2531285,164356031,31117,51176,5570,61,f0fcfe00,0.0,0.0,0.0,0.0,0.0,0.0
2026-05-25 09:32:16.237175,1779715936.237175,-1032593,-2502465,164361527,31681,33220,-11741,61,f0fcfe00,0.0,0.0,0.0,0.0,0.0,0.0
2026-05-25 09:32:16.253568,1779715936.253568,-1032593,-2502465,164361527,31681,33220,-11741,61,f0fcfe00,0.0,0.0,0.0,0.0,0.0,0.0
2026-05-25 09:32:16.260858,1779715936.260858,-1026254,-2449682,164387155,35576,20842,-19445,61,f0fcfe00,0.0,0.0,0.0,0.0,0.0,0.0
2026-05-25 09:32:16.270476,1779715936.270476,-1026254,-2449682,164387155,35576,20842,-19445,61,f0fcfe00,0.0,0.0,0.0,0.0,0.0,0.0
2026-05-25 09:32:16.278653,1779715936.278653,-1097857,-2429687,164376789,15671,1840,-31791,61,f0fdfe00,0.0,0.0,0.0,0.0,0.0,0.0
2026-05-25 09:32:16.287248,1779715936.287248,-1097857,-2429687,164376789,15671,1840,-31791,61,f0fdfe00,0.0,0.0,0.0,0.0,0.0,0.0
2026-05-25 09:32:16.294219,1779715936.294219,-1069212,-2466159,164418672,13175,-2061,-18570,61,f0fdfe00,0.0,0.0,0.0,0.0,0.0,0.0
2026-05-25 09:32:16.313418,1779715936.313418,-1069212,-2466159,164418672,13175,-2061,-18570,61,f0fdfe00,0.0,0.0,0.0,0.0,0.0,0.0
2026-05-25 09:32:16.328427,1779715936.328427,-1052877,-2547628,164376834,20510,-23752,-10451,61,f0fdfe00,0.0,0.0,0.0,0.0,0.0,0.0
2026-05-25 09:32:16.338299,1779715936.338299,-1052877,-2547628,164376834,20510,-23752,-10451,61,f0fdfe00,0.0,0.0,0.0,0.0,0.0,0.0
2026-05-25 09:32:16.356299,1779715936.356299,-1000368,-2550469,164380566,9529,-8321,5510,61,f0fdfe00,0.0,0.0,0.0,0.0,0.0,0.0
2026-05-25 09:32:16.367949,1779715936.367949,-1000368,-2550469,164380566,9529,-8321,5510,61,f0fdfe00,0.0,0.0,0.0,0.0,0.0,0.0
2026-05-25 09:32:16.378632,1779715936.378632,-927322,-2569816,164349578,8734,-45355,27860,61,f0fcfe00,0.0,0.0,0.0,0.0,0.0,0.0
2026-05-25 09:32:16.391902,1779715936.391902,-927322,-2569816,164349578,8734,-45355,27860,61,f0fcfe00,0.0,0.0,0.0,0.0,0.0,0.0
2026-05-25 09:32:16.404100,1779715936.404100,-907585,-2601926,164316588,7398,-37574,22135,61,f0fdfe00,0.0,0.0,0.0,0.0,0.0,0.0
2026-05-25 09:32:16.414313,1779715936.414313,-907585,-2601926,164316588,7398,-37574,22135,61,f0fdfe00,0.0,0.0,0.0,0.0,0.0,0.0
2026-05-25 09:32:16.422498,1779715936.422498,-914576,-2648562,164334828,13688,-21301,18453,61,f0fcfe00,0.0,0.0,0.0,0.0,0.0,0.0
2026-05-25 09:32:16.432862,1779715936.432862,-914576,-2648562,164334828,13688,-21301,18453,61,f0fcfe00,0.0,0.0,0.0,0.0,0.0,0.0
2026-05-25 09:32:16.441914,1779715936.441914,-897285,-2640181,164343776,2197,15756,-10123,61,f0fcfe00,0.0,0.0,0.0,0.0,0.0,0.0
2026-05-25 09:32:16.451408,1779715936.451408,-897285,-2640181,164343776,2197,15756,-10123,61,f0fcfe00,0.0,0.0,0.0,0.0,0.0,0.0
2026-05-25 09:32:16.459111,1779715936.459111,-938277,-2604417,164363603,14808,19667,-23291,61,f0fcfe00,0.0,0.0,0.0,0.0,0.0,0.0
2026-05-25 09:32:16.469338,1779715936.469338,-938277,-2604417,164363603,14808,19667,-23291,61,f0fcfe00,0.0,0.0,0.0,0.0,0.0,0.0
2026-05-25 09:32:16.476614,1779715936.476614,-880535,-2490786,164329941,33878,24455,-24009,61,f0fdfe00,0.0,0.0,0.0,0.0,0.0,0.0
2026-05-25 09:32:16.488524,1779715936.488524,-880535,-2490786,164329941,33878,24455,-24009,61,f0fdfe00,0.0,0.0,0.0,0.0,0.0,0.0
2026-05-25 09:32:16.497022,1779715936.497022,-928668,-2416165,164378195,59503,47111,-2172,61,f0fdfe00,0.0,0.0,0.0,0.0,0.0,0.0
2026-05-25 09:32:16.505431,1779715936.505431,-928668,-2416165,164378195,59503,47111,-2172,61,f0fdfe00,0.0,0.0,0.0,0.0,0.0,0.0
2026-05-25 09:32:16.512992,1779715936.512992,-968197,-2370166,164357437,64864,71239,1029,61,f0fcfe00,0.0,0.0,0.0,0.0,0.0,0.0
2026-05-25 09:32:16.521787,1779715936.521787,-968197,-2370166,164357437,64864,71239,1029,61,f0fcfe00,0.0,0.0,0.0,0.0,0.0,0.0
2026-05-25 09:32:16.529750,1779715936.529750,-1013413,-2422441,164394659,85955,78370,28949,61,f0fcfe00,0.0,0.0,0.0,0.0,0.0,0.0
2026-05-25 09:32:16.539521,1779715936.539521,-1013413,-2422441,164394659,85955,78370,28949,61,f0fcfe00,0.0,0.0,0.0,0.0,0.0,0.0
2026-05-25 09:32:16.547260,1779715936.547260,-1042283,-2511274,164389125,59869,76576,11792,61,f0fcfe00,0.0,0.0,0.0,0.0,0.0,0.0
2026-05-25 09:32:16.555934,1779715936.555934,-1042283,-2511274,164389125,59869,76576,11792,61,f0fcfe00,0.0,0.0,0.0,0.0,0.0,0.0
2026-05-25 09:32:16.564447,1779715936.564447,-1048049,-2591892,164362689,48370,72236,-2622,61,f0fcfe00,0.0,0.0,0.0,0.0,0.0,0.0
2026-05-25 09:32:16.573449,1779715936.573449,-1048049,-2591892,164362689,48370,72236,-2622,61,f0fcfe00,0.0,0.0,0.0,0.0,0.0,0.0
2026-05-25 09:32:16.580816,1779715936.580816,-1045187,-2617251,164359118,36169,74338,-12847,61,f0fcfe00,0.0,0.0,0.0,0.0,0.0,0.0
2026-05-25 09:32:16.595199,1779715936.595199,-1045187,-2617251,164359118,36169,74338,-12847,61,f0fcfe00,0.0,0.0,0.0,0.0,0.0,0.0
2026-05-25 09:32:16.602080,1779715936.602080,-1042290,-2633932,164325241,51828,69317,-31389,61,f0fcfe00,0.0,0.0,0.0,0.0,0.0,0.0
2026-05-25 09:32:16.610089,1779715936.610089,-1042290,-2633932,164325241,51828,69317,-31389,61,f0fcfe00,0.0,0.0,0.0,0.0,0.0,0.0
2026-05-25 09:32:16.616547,1779715936.616547,-968361,-2606812,164334684,61196,76090,-17402,61,f0fcfe00,0.0,0.0,0.0,0.0,0.0,0.0
2026-05-25 09:32:16.624379,1779715936.624379,-968361,-2606812,164334684,61196,76090,-17402,61,f0fcfe00,0.0,0.0,0.0,0.0,0.0,0.0
2026-05-25 09:32:16.630615,1779715936.630615,-987464,-2604977,164403700,45391,34940,-9987,61,f0fcfe00,0.0,0.0,0.0,0.0,0.0,0.0
2026-05-25 09:32:16.638302,1779715936.638302,-987464,-2604977,164403700,45391,34940,-9987,61,f0fcfe00,0.0,0.0,0.0,0.0,0.0,0.0
2026-05-25 09:32:16.644654,1779715936.644654,-1009327,-2555585,164438740,40556,13430,19669,61,f0fcfe00,0.0,0.0,0.0,0.0,0.0,0.0
2026-05-25 09:32:16.652539,1779715936.652539,-1009327,-2555585,164438740,40556,13430,19669,61,f0fcfe00,0.0,0.0,0.0,0.0,0.0,0.0
2026-05-25 09:32:16.660110,1779715936.660110,-1027045,-2548919,164487961,13553,-32546,17165,61,f0fdfe00,0.0,0.0,0.0,0.0,0.0,0.0
2026-05-25 09:32:16.670122,1779715936.670122,-1027045,-2548919,164487961,13553,-32546,17165,61,f0fdfe00,0.0,0.0,0.0,0.0,0.0,0.0
2026-05-25 09:32:16.677390,1779715936.677390,-1035196,-2514617,164452735,18423,-51587,7285,61,f0fcfe00,0.0,0.0,0.0,0.0,0.0,0.0
2026-05-25 09:32:16.693449,1779715936.693449,-1035196,-2514617,164452735,18423,-51587,7285,61,f0fcfe00,0.0,0.0,0.0,0.0,0.0,0.0
2026-05-25 09:32:16.702693,1779715936.702693,-970967,-2474688,164406870,18107,-77856,-16592,61,f0fcfe00,0.0,0.0,0.0,0.0,0.0,0.0
2026-05-25 09:32:16.710912,1779715936.710912,-970967,-2474688,164406870,18107,-77856,-16592,61,f0fcfe00,0.0,0.0,0.0,0.0,0.0,0.0
2026-05-25 09:32:16.717872,1779715936.717872,-963699,-2480707,164349433,23478,-69218,3412,61,f0fcfe00,0.0,0.0,0.0,0.0,0.0,0.0
2026-05-25 09:32:16.727212,1779715936.727212,-963699,-2480707,164349433,23478,-69218,3412,61,f0fcfe00,0.0,0.0,0.0,0.0,0.0,0.0
2026-05-25 09:32:16.734479,1779715936.734479,-937662,-2524893,164329667,29953,-39109,14858,61,f0fcfe00,0.0,0.0,0.0,0.0,0.0,0.0
2026-05-25 09:32:16.743049,1779715936.743049,-937662,-2524893,164329667,29953,-39109,14858,61,f0fcfe00,0.0,0.0,0.0,0.0,0.0,0.0
2026-05-25 09:32:16.749513,1779715936.749513,-965466,-2618662,164304823,-900,12197,35210,61,f0fcfe00,0.0,0.0,0.0,0.0,0.0,0.0
2026-05-25 09:32:16.767524,1779715936.767524,-965466,-2618662,164304823,-900,12197,35210,61,f0fcfe00,0.0,0.0,0.0,0.0,0.0,0.0
2026-05-25 09:32:16.781619,1779715936.781619,-926987,-2650944,164275745,6919,42238,32324,61,f0fcfe00,0.0,0.0,0.0,0.0,0.0,0.0
2026-05-25 09:32:16.795630,1779715936.795630,-926987,-2650944,164275745,6919,42238,32324,61,f0fcfe00,0.0,0.0,0.0,0.0,0.0,0.0
2026-05-25 09:32:16.802261,1779715936.802261,-902403,-2630413,164299214,15884,53507,187,61,f0fcfe00,0.0,0.0,0.0,0.0,0.0,0.0
2026-05-25 09:32:16.810583,1779715936.810583,-902403,-2630413,164299214,15884,53507,187,61,f0fcfe00,0.0,0.0,0.0,0.0,0.0,0.0
2026-05-25 09:32:16.816771,1779715936.816771,-861224,-2571327,164318410,28621,65060,-16261,61,f0fcfe00,0.0,0.0,0.0,0.0,0.0,0.0
2026-05-25 09:32:16.833389,1779715936.833389,-861224,-2571327,164318410,28621,65060,-16261,61,f0fcfe00,0.0,0.0,0.0,0.0,0.0,0.0
2026-05-25 09:32:16.842773,1779715936.842773,-924769,-2481993,164355996,11716,65609,-8668,61,f0fcfe00,0.0,0.0,0.0,0.0,0.0,0.0
2026-05-25 09:32:16.861158,1779715936.861158,-924769,-2481993,164355996,11716,65609,-8668,61,f0fcfe00,0.0,0.0,0.0,0.0,0.0,0.0
2026-05-25 09:32:16.876359,1779715936.876359,-987254,-2447795,164379187,25403,58999,30758,61,f0fcfe00,0.0,0.0,0.0,0.0,0.0,0.0
2026-05-25 09:32:16.893418,1779715936.893418,-987254,-2447795,164379187,25403,58999,30758,61,f0fcfe00,0.0,0.0,0.0,0.0,0.0,0.0
2026-05-25 09:32:16.903641,1779715936.903641,-1075515,-2468819,164433232,21978,32459,59078,61,f0fcfe00,0.0,0.0,0.0,0.0,0.0,0.0
2026-05-25 09:32:16.912056,1779715936.912056,-1075515,-2468819,164433232,21978,32459,59078,61,f0fcfe00,0.0,0.0,0.0,0.0,0.0,0.0
2026-05-25 09:32:16.922954,1779715936.922954,-1146879,-2494585,164459614,44009,-16151,37050,61,f0fcfe00,0.0,0.0,0.0,0.0,0.0,0.0
2026-05-25 09:32:16.940682,1779715936.940682,-1146879,-2494585,164459614,44009,-16151,37050,61,f0fcfe00,0.0,0.0,0.0,0.0,0.0,0.0
2026-05-25 09:32:16.954803,1779715936.954803,-1159571,-2547825,164426751,38887,-37486,17491,61,f0fcfe00,0.0,0.0,0.0,0.0,0.0,0.0
2026-05-25 09:32:16.973025,1779715936.973025,-1159571,-2547825,164426751,38887,-37486,17491,61,f0fcfe00,0.0,0.0,0.0,0.0,0.0,0.0
2026-05-25 09:32:16.988037,1779715936.988037,-1051263,-2562829,164382558,18724,-34915,-14749,61,f0fcfe00,0.0,0.0,0.0,0.0,0.0,0.0
2026-05-25 09:32:16.997112,1779715936.997112,-1051263,-2562829,164382558,18724,-34915,-14749,61,f0fcfe00,0.0,0.0,0.0,0.0,0.0,0.0
2026-05-25 09:32:17.005137,1779715937.005137,-932514,-2562622,164333830,19462,12033,-12133,61,f0fcfe00,0.0,0.0,0.0,0.0,0.0,0.0
2026-05-25 09:32:17.015555,1779715937.015555,-932514,-2562622,164333830,19462,12033,-12133,61,f0fcfe00,0.0,0.0,0.0,0.0,0.0,0.0
2026-05-25 09:32:17.022928,1779715937.022928,-828017,-2580725,164321476,29985,30091,-13891,61,f0fcfe00,0.0,0.0,0.0,0.0,0.0,0.0
2026-05-25 09:32:17.032396,1779715937.032396,-828017,-2580725,164321476,29985,30091,-13891,61,f0fcfe00,0.0,0.0,0.0,0.0,0.0,0.0
2026-05-25 09:32:17.048645,1779715937.048645,-1043783,-2479725,164371894,15437,37771,-5507,61,f0fbfe00,0.0,0.0,0.0,0.0,0.0,0.0
2026-05-25 09:32:17.065949,1779715937.065949,-1043783,-2479725,164371894,15437,37771,-5507,61,f0fbfe00,0.0,0.0,0.0,0.0,0.0,0.0
2026-05-25 09:32:17.079605,1779715937.079605,-992261,-2465571,164399220,35800,9230,-19490,61,f0fbfe00,0.0,0.0,0.0,0.0,0.0,0.0
2026-05-25 09:32:17.090451,1779715937.090451,-992261,-2465571,164399220,35800,9230,-19490,61,f0fbfe00,0.0,0.0,0.0,0.0,0.0,0.0
2026-05-25 09:32:17.097619,1779715937.097619,-903852,-2526407,164360806,24407,8901,-19340,61,f0fbfe00,0.0,0.0,0.0,0.0,0.0,0.0
2026-05-25 09:32:17.106697,1779715937.106697,-903852,-2526407,164360806,24407,8901,-19340,61,f0fbfe00,0.0,0.0,0.0,0.0,0.0,0.0
2026-05-25 09:32:17.114623,1779715937.114623,-843269,-2544497,164410076,12139,-10685,2510,61,f0fafe00,0.0,0.0,0.0,0.0,0.0,0.0
2026-05-25 09:32:17.123717,1779715937.123717,-843269,-2544497,164410076,12139,-10685,2510,61,f0fafe00,0.0,0.0,0.0,0.0,0.0,0.0
2026-05-25 09:32:17.131723,1779715937.131723,-869627,-2631971,164368698,1801,24720,25603,61,f0fafe00,0.0,0.0,0.0,0.0,0.0,0.0
2026-05-25 09:32:17.140665,1779715937.140665,-869627,-2631971,164368698,1801,24720,25603,61,f0fafe00,0.0,0.0,0.0,0.0,0.0,0.0
2026-05-25 09:32:17.154586,1779715937.154586,-942982,-2632960,164348277,21496,37226,33766,61,f0fafe00,0.0,0.0,0.0,0.0,0.0,0.0
2026-05-25 09:32:17.170967,1779715937.170967,-942982,-2632960,164348277,21496,37226,33766,61,f0fafe00,0.0,0.0,0.0,0.0,0.0,0.0
2026-05-25 09:32:17.178010,1779715937.178010,-1003619,-2645417,164284414,10593,66315,32808,61,f0fbfe00,0.0,0.0,0.0,0.0,0.0,0.0
2026-05-25 09:32:17.187451,1779715937.187451,-1003619,-2645417,164284414,10593,66315,32808,61,f0fbfe00,0.0,0.0,0.0,0.0,0.0,0.0
2026-05-25 09:32:17.194270,1779715937.194270,-1028176,-2600296,164337503,18869,80520,25734,61,f0fafe00,0.0,0.0,0.0,0.0,0.0,0.0
2026-05-25 09:32:17.202784,1779715937.202784,-1028176,-2600296,164337503,18869,80520,25734,61,f0fafe00,0.0,0.0,0.0,0.0,0.0,0.0
2026-05-25 09:32:17.211872,1779715937.211872,-1055386,-2532339,164386137,13966,79180,1874,61,f0fafe00,0.0,0.0,0.0,0.0,0.0,0.0
2026-05-25 09:32:17.222409,1779715937.222409,-1055386,-2532339,164386137,13966,79180,1874,61,f0fafe00,0.0,0.0,0.0,0.0,0.0,0.0
2026-05-25 09:32:17.229635,1779715937.229635,-993315,-2487509,164449050,18584,58979,10669,61,f0fafe00,0.0,0.0,0.0,0.0,0.0,0.0
2026-05-25 09:32:17.238745,1779715937.238745,-993315,-2487509,164449050,18584,58979,10669,61,f0fafe00,0.0,0.0,0.0,0.0,0.0,0.0
2026-05-25 09:32:17.245492,1779715937.245492,-1027155,-2445648,164446548,13993,22280,25577,61,f0fafe00,0.0,0.0,0.0,0.0,0.0,0.0
2026-05-25 09:32:17.253976,1779715937.253976,-1027155,-2445648,164446548,13993,22280,25577,61,f0fafe00,0.0,0.0,0.0,0.0,0.0,0.0
2026-05-25 09:32:17.260942,1779715937.260942,-926524,-2447613,164407934,21167,2565,12830,61,f0fafe00,0.0,0.0,0.0,0.0,0.0,0.0
2026-05-25 09:32:17.272093,1779715937.272093,-926524,-2447613,164407934,21167,2565,12830,61,f0fafe00,0.0,0.0,0.0,0.0,0.0,0.0
2026-05-25 09:32:17.286845,1779715937.286845,-946995,-2516172,164392624,20756,7202,38919,61,f0fafe00,0.0,0.0,0.0,0.0,0.0,0.0
2026-05-25 09:32:17.299677,1779715937.299677,-946995,-2516172,164392624,20756,7202,38919,61,f0fafe00,0.0,0.0,0.0,0.0,0.0,0.0
2026-05-25 09:32:17.307167,1779715937.307167,-839749,-2545282,164344651,31344,16985,926,61,f0fafe00,0.0,0.0,0.0,0.0,0.0,0.0
2026-05-25 09:32:17.315849,1779715937.315849,-839749,-2545282,164344651,31344,16985,926,61,f0fafe00,0.0,0.0,0.0,0.0,0.0,0.0
2026-05-25 09:32:17.323384,1779715937.323384,-870361,-2578404,164328709,51219,51444,30580,61,f0fbfe00,0.0,0.0,0.0,0.0,0.0,0.0
2026-05-25 09:32:17.332370,1779715937.332370,-870361,-2578404,164328709,51219,51444,30580,61,f0fbfe00,0.0,0.0,0.0,0.0,0.0,0.0
2026-05-25 09:32:17.339635,1779715937.339635,-851113,-2542598,164306375,58919,36410,-8615,61,f0fbfe00,0.0,0.0,0.0,0.0,0.0,0.0
2026-05-25 09:32:17.349764,1779715937.349764,-851113,-2542598,164306375,58919,36410,-8615,61,f0fbfe00,0.0,0.0,0.0,0.0,0.0,0.0
2026-05-25 09:32:17.357021,1779715937.357021,-912196,-2573929,164328685,64921,70361,-264,61,f0fbfe00,0.0,0.0,0.0,0.0,0.0,0.0
2026-05-25 09:32:17.366597,1779715937.366597,-912196,-2573929,164328685,64921,70361,-264,61,f0fbfe00,0.0,0.0,0.0,0.0,0.0,0.0
2026-05-25 09:32:17.386401,1779715937.386401,-918999,-2536256,164336308,38485,34826,-19130,61,f0fbfe00,0.0,0.0,0.0,0.0,0.0,0.0
2026-05-25 09:32:17.396057,1779715937.396057,-918999,-2536256,164336308,38485,34826,-19130,61,f0fbfe00,0.0,0.0,0.0,0.0,0.0,0.0
2026-05-25 09:32:17.404003,1779715937.404003,-971070,-2514753,164373957,51350,75681,-5849,61,f0fbfe00,0.0,0.0,0.0,0.0,0.0,0.0
2026-05-25 09:32:17.412990,1779715937.412990,-971070,-2514753,164373957,51350,75681,-5849,61,f0fbfe00,0.0,0.0,0.0,0.0,0.0,0.0
2026-05-25 09:32:17.423505,1779715937.423505,-1070334,-2480236,164375537,50896,9562,-5503,61,f0fafe00,0.0,0.0,0.0,0.0,0.0,0.0
2026-05-25 09:32:17.433757,1779715937.433757,-1070334,-2480236,164375537,50896,9562,-5503,61,f0fafe00,0.0,0.0,0.0,0.0,0.0,0.0
2026-05-25 09:32:17.441364,1779715937.441364,-1060001,-2491351,164383732,51342,39899,2845,61,f0fafe00,0.0,0.0,0.0,0.0,0.0,0.0
2026-05-25 09:32:17.450251,1779715937.450251,-1060001,-2491351,164383732,51342,39899,2845,61,f0fafe00,0.0,0.0,0.0,0.0,0.0,0.0
2026-05-25 09:32:17.457770,1779715937.457770,-1148107,-2515200,164400180,38759,17914,-9458,61,f0fafe00,0.0,0.0,0.0,0.0,0.0,0.0
2026-05-25 09:32:17.466603,1779715937.466603,-1148107,-2515200,164400180,38759,17914,-9458,61,f0fafe00,0.0,0.0,0.0,0.0,0.0,0.0
2026-05-25 09:32:17.476118,1779715937.476118,-979905,-2500745,164392574,36946,30427,-22127,61,f0fbfe00,0.0,0.0,0.0,0.0,0.0,0.0
2026-05-25 09:32:17.486285,1779715937.486285,-979905,-2500745,164392574,36946,30427,-22127,61,f0fbfe00,0.0,0.0,0.0,0.0,0.0,0.0
2026-05-25 09:32:17.493728,1779715937.493728,-1042201,-2535653,164355743,31959,11024,-24420,61,f0fbfe00,0.0,0.0,0.0,0.0,0.0,0.0
2026-05-25 09:32:17.503421,1779715937.503421,-1042201,-2535653,164355743,31959,11024,-24420,61,f0fbfe00,0.0,0.0,0.0,0.0,0.0,0.0
2026-05-25 09:32:17.517320,1779715937.517320,-890705,-2566706,164350891,30157,12590,288,61,f0fbfe00,0.0,0.0,0.0,0.0,0.0,0.0
2026-05-25 09:32:17.530159,1779715937.530159,-890705,-2566706,164350891,30157,12590,288,61,f0fbfe00,0.0,0.0,0.0,0.0,0.0,0.0
2026-05-25 09:32:17.541694,1779715937.541694,-951267,-2540282,164366540,24334,29854,16635,61,f0fbfe00,0.0,0.0,0.0,0.0,0.0,0.0
2026-05-25 09:32:17.550856,1779715937.550856,-951267,-2540282,164366540,24334,29854,16635,61,f0fbfe00,0.0,0.0,0.0,0.0,0.0,0.0
2026-05-25 09:32:17.558003,1779715937.558003,-876840,-2518288,164414562,18356,49944,29588,61,f0fbfe00,0.0,0.0,0.0,0.0,0.0,0.0
2026-05-25 09:32:17.567224,1779715937.567224,-876840,-2518288,164414562,18356,49944,29588,61,f0fbfe00,0.0,0.0,0.0,0.0,0.0,0.0
2026-05-25 09:32:17.575435,1779715937.575435,-951467,-2480632,164396975,19971,50995,15178,61,f0fbfe00,0.0,0.0,0.0,0.0,0.0,0.0
2026-05-25 09:32:17.586398,1779715937.586398,-951467,-2480632,164396975,19971,50995,15178,61,f0fbfe00,0.0,0.0,0.0,0.0,0.0,0.0
2026-05-25 09:32:17.601643,1779715937.601643,-967996,-2542730,164399198,-881,48833,8122,61,f0fbfe00,0.0,0.0,0.0,0.0,0.0,0.0
2026-05-25 09:32:17.621689,1779715937.621689,-967996,-2542730,164399198,-881,48833,8122,61,f0fbfe00,0.0,0.0,0.0,0.0,0.0,0.0
2026-05-25 09:32:17.631396,1779715937.631396,-993052,-2560785,164373482,17522,32998,32980,61,f0fbfe00,0.0,0.0,0.0,0.0,0.0,0.0
2026-05-25 09:32:17.640071,1779715937.640071,-993052,-2560785,164373482,17522,32998,32980,61,f0fbfe00,0.0,0.0,0.0,0.0,0.0,0.0
2026-05-25 09:32:17.648287,1779715937.648287,-942003,-2606540,164385411,6971,28025,18154,61,f0fbfe00,0.0,0.0,0.0,0.0,0.0,0.0
2026-05-25 09:32:17.659595,1779715937.659595,-942003,-2606540,164385411,6971,28025,18154,61,f0fbfe00,0.0,0.0,0.0,0.0,0.0,0.0
2026-05-25 09:32:17.671930,1779715937.671930,-922305,-2549086,164338057,32589,37295,16855,61,f0fbfe00,0.0,0.0,0.0,0.0,0.0,0.0
2026-05-25 09:32:17.687014,1779715937.687014,-922305,-2549086,164338057,32589,37295,16855,61,f0fbfe00,0.0,0.0,0.0,0.0,0.0,0.0
2026-05-25 09:32:17.700850,1779715937.700850,-885236,-2517980,164340179,47398,18272,-3093,61,f0fbfe00,0.0,0.0,0.0,0.0,0.0,0.0
2026-05-25 09:32:17.718599,1779715937.718599,-885236,-2517980,164340179,47398,18272,-3093,61,f0fbfe00,0.0,0.0,0.0,0.0,0.0,0.0
2026-05-25 09:32:17.732802,1779715937.732802,-907905,-2519001,164314984,56673,2969,-7159,61,f0fbfe00,0.0,0.0,0.0,0.0,0.0,0.0
2026-05-25 09:32:17.742048,1779715937.742048,-907905,-2519001,164314984,56673,2969,-7159,61,f0fbfe00,0.0,0.0,0.0,0.0,0.0,0.0
2026-05-25 09:32:17.748903,1779715937.748903,-936475,-2546351,164298791,41040,-11392,-10299,61,f0fbfe00,0.0,0.0,0.0,0.0,0.0,0.0
2026-05-25 09:32:17.758077,1779715937.758077,-936475,-2546351,164298791,41040,-11392,-10299,61,f0fbfe00,0.0,0.0,0.0,0.0,0.0,0.0
2026-05-25 09:32:17.764806,1779715937.764806,-984536,-2597669,164299943,18428,-1559,881,61,f0fbfe00,0.0,0.0,0.0,0.0,0.0,0.0
2026-05-25 09:32:17.774048,1779715937.774048,-984536,-2597669,164299943,18428,-1559,881,61,f0fbfe00,0.0,0.0,0.0,0.0,0.0,0.0
2026-05-25 09:32:17.781598,1779715937.781598,-971850,-2631727,164274753,1552,36944,-12095,61,f0fafe00,0.0,0.0,0.0,0.0,0.0,0.0
2026-05-25 09:32:17.790169,1779715937.790169,-971850,-2631727,164274753,1552,36944,-12095,61,f0fafe00,0.0,0.0,0.0,0.0,0.0,0.0
2026-05-25 09:32:17.798051,1779715937.798051,-898489,-2647753,164272840,5235,44564,-19638,61,f0fbfe00,0.0,0.0,0.0,0.0,0.0,0.0
2026-05-25 09:32:17.808072,1779715937.808072,-898489,-2647753,164272840,5235,44564,-19638,61,f0fbfe00,0.0,0.0,0.0,0.0,0.0,0.0
2026-05-25 09:32:17.815794,1779715937.815794,-870531,-2660567,164311763,19686,78020,-26853,61,f0fafe00,0.0,0.0,0.0,0.0,0.0,0.0
2026-05-25 09:32:17.824677,1779715937.824677,-870531,-2660567,164311763,19686,78020,-26853,61,f0fafe00,0.0,0.0,0.0,0.0,0.0,0.0
2026-05-25 09:32:17.832081,1779715937.832081,-925082,-2613051,164363007,9654,79327,-7025,61,f0fafe00,0.0,0.0,0.0,0.0,0.0,0.0
2026-05-25 09:32:17.864273,1779715937.864273,-925082,-2613051,164363007,9654,79327,-7025,61,f0fafe00,0.0,0.0,0.0,0.0,0.0,0.0
2026-05-25 09:32:17.871801,1779715937.871801,-1082260,-2543681,164381242,14973,110266,4421,61,f0fafe00,0.0,0.0,0.0,0.0,0.0,0.0
2026-05-25 09:32:17.889303,1779715937.889303,-1082260,-2543681,164381242,14973,110266,4421,61,f0fafe00,0.0,0.0,0.0,0.0,0.0,0.0
2026-05-25 09:32:17.912756,1779715937.912756,-1175888,-2441464,164429534,5922,112505,9812,61,f0fafe00,0.0,0.0,0.0,0.0,0.0,0.0
2026-05-25 09:32:17.921903,1779715937.921903,-1175888,-2441464,164429534,5922,112505,9812,61,f0fafe00,0.0,0.0,0.0,0.0,0.0,0.0
2026-05-25 09:32:17.929252,1779715937.929252,-1171099,-2417210,164379436,-3865,55005,-10807,61,f0fafe00,0.0,0.0,0.0,0.0,0.0,0.0
2026-05-25 09:32:17.938573,1779715937.938573,-1171099,-2417210,164379436,-3865,55005,-10807,61,f0fafe00,0.0,0.0,0.0,0.0,0.0,0.0
2026-05-25 09:32:17.946721,1779715937.946721,-1035817,-2449229,164404487,-15715,2599,-16489,61,f0fafe00,0.0,0.0,0.0,0.0,0.0,0.0
2026-05-25 09:32:17.955625,1779715937.955625,-1035817,-2449229,164404487,-15715,2599,-16489,61,f0fafe00,0.0,0.0,0.0,0.0,0.0,0.0
2026-05-25 09:32:17.964620,1779715937.964620,-893194,-2499947,164318702,8183,-32850,-11779,61,f0fafe00,0.0,0.0,0.0,0.0,0.0,0.0
2026-05-25 09:32:17.973453,1779715937.973453,-893194,-2499947,164318702,8183,-32850,-11779,61,f0fafe00,0.0,0.0,0.0,0.0,0.0,0.0
2026-05-25 09:32:17.981383,1779715937.981383,-843078,-2546233,164341660,24495,-20886,-8341,61,f0fafe00,0.0,0.0,0.0,0.0,0.0,0.0
2026-05-25 09:32:17.990577,1779715937.990577,-843078,-2546233,164341660,24495,-20886,-8341,61,f0fafe00,0.0,0.0,0.0,0.0,0.0,0.0
2026-05-25 09:32:17.998679,1779715937.998679,-843309,-2587592,164350352,53951,-9863,-7974,61,f0fafe00,0.0,0.0,0.0,0.0,0.0,0.0
2026-05-25 09:32:18.012736,1779715938.012736,-843309,-2587592,164350352,53951,-9863,-7974,61,f0fafe00,0.0,0.0,0.0,0.0,0.0,0.0
2026-05-25 09:32:18.020023,1779715938.020023,-933704,-2594945,164382130,47967,-7124,-10050,61,f0fafe00,0.0,0.0,0.0,0.0,0.0,0.0
2026-05-25 09:32:18.028339,1779715938.028339,-933704,-2594945,164382130,47967,-7124,-10050,61,f0fafe00,0.0,0.0,0.0,0.0,0.0,0.0
2026-05-25 09:32:18.035491,1779715938.035491,-924102,-2552232,164413987,17725,-9094,5536,61,f0fafe00,0.0,0.0,0.0,0.0,0.0,0.0
2026-05-25 09:32:18.045101,1779715938.045101,-924102,-2552232,164413987,17725,-9094,5536,61,f0fafe00,0.0,0.0,0.0,0.0,0.0,0.0
2026-05-25 09:32:18.052753,1779715938.052753,-998502,-2575326,164407812,14142,3003,3187,61,f0fafe00,0.0,0.0,0.0,0.0,0.0,0.0
2026-05-25 09:32:18.063969,1779715938.063969,-998502,-2575326,164407812,14142,3003,3187,61,f0fafe00,0.0,0.0,0.0,0.0,0.0,0.0
2026-05-25 09:32:18.076563,1779715938.076563,-1016129,-2559372,164403421,11803,-4685,3969,61,f0fafe00,0.0,0.0,0.0,0.0,0.0,0.0
2026-05-25 09:32:18.094169,1779715938.094169,-1016129,-2559372,164403421,11803,-4685,3969,61,f0fafe00,0.0,0.0,0.0,0.0,0.0,0.0
2026-05-25 09:32:18.108647,1779715938.108647,-1009829,-2559539,164431957,43354,-3524,-22840,61,f0fafe00,0.0,0.0,0.0,0.0,0.0,0.0
2026-05-25 09:32:18.120946,1779715938.120946,-1009829,-2559539,164431957,43354,-3524,-22840,61,f0fafe00,0.0,0.0,0.0,0.0,0.0,0.0
2026-05-25 09:32:18.128240,1779715938.128240,-990442,-2540017,164410093,75380,-15865,-3874,61,f0fafe00,0.0,0.0,0.0,0.0,0.0,0.0
2026-05-25 09:32:18.137359,1779715938.137359,-990442,-2540017,164410093,75380,-15865,-3874,61,f0fafe00,0.0,0.0,0.0,0.0,0.0,0.0
2026-05-25 09:32:18.146362,1779715938.146362,-1010173,-2512351,164410498,59211,-19400,-8317,61,f0fafe00,0.0,0.0,0.0,0.0,0.0,0.0
2026-05-25 09:32:18.155798,1779715938.155798,-1010173,-2512351,164410498,59211,-19400,-8317,61,f0fafe00,0.0,0.0,0.0,0.0,0.0,0.0
2026-05-25 09:32:18.170416,1779715938.170416,-1019298,-2540958,164365635,53363,-18898,5315,61,f0fafe00,0.0,0.0,0.0,0.0,0.0,0.0
2026-05-25 09:32:18.185262,1779715938.185262,-1019298,-2540958,164365635,53363,-18898,5315,61,f0fafe00,0.0,0.0,0.0,0.0,0.0,0.0
2026-05-25 09:32:18.193056,1779715938.193056,-949110,-2551830,164347459,5608,-248,2078,61,f0fafe00,0.0,0.0,0.0,0.0,0.0,0.0
2026-05-25 09:32:18.203775,1779715938.203775,-949110,-2551830,164347459,5608,-248,2078,61,f0fafe00,0.0,0.0,0.0,0.0,0.0,0.0
2026-05-25 09:32:18.211575,1779715938.211575,-797025,-2559881,164308566,5464,30510,16669,61,f0fafe00,0.0,0.0,0.0,0.0,0.0,0.0
2026-05-25 09:32:18.220044,1779715938.220044,-797025,-2559881,164308566,5464,30510,16669,61,f0fafe00,0.0,0.0,0.0,0.0,0.0,0.0
2026-05-25 09:32:18.226603,1779715938.226603,-714253,-2556095,164305639,9760,88471,-1562,61,f0fafe00,0.0,0.0,0.0,0.0,0.0,0.0
2026-05-25 09:32:18.237288,1779715938.237288,-714253,-2556095,164305639,9760,88471,-1562,61,f0fafe00,0.0,0.0,0.0,0.0,0.0,0.0
2026-05-25 09:32:18.251831,1779715938.251831,-763202,-2529806,164311457,36754,92694,9941,61,f0fafe00,0.0,0.0,0.0,0.0,0.0,0.0
2026-05-25 09:32:18.267735,1779715938.267735,-763202,-2529806,164311457,36754,92694,9941,61,f0fafe00,0.0,0.0,0.0,0.0,0.0,0.0
2026-05-25 09:32:18.275984,1779715938.275984,-903136,-2502600,164371122,20342,109081,-4904,61,f0fafe00,0.0,0.0,0.0,0.0,0.0,0.0
2026-05-25 09:32:18.288170,1779715938.288170,-903136,-2502600,164371122,20342,109081,-4904,61,f0fafe00,0.0,0.0,0.0,0.0,0.0,0.0
2026-05-25 09:32:18.304138,1779715938.304138,-1076807,-2453491,164389656,-16299,73340,21996,61,f0fbfe00,0.0,0.0,0.0,0.0,0.0,0.0
2026-05-25 09:32:18.321488,1779715938.321488,-1076807,-2453491,164389656,-16299,73340,21996,61,f0fbfe00,0.0,0.0,0.0,0.0,0.0,0.0
2026-05-25 09:32:18.335380,1779715938.335380,-1118254,-2433290,164436518,-34653,48397,32499,61,f0fafe00,0.0,0.0,0.0,0.0,0.0,0.0
2026-05-25 09:32:18.350933,1779715938.350933,-1118254,-2433290,164436518,-34653,48397,32499,61,f0fafe00,0.0,0.0,0.0,0.0,0.0,0.0
2026-05-25 09:32:18.358834,1779715938.358834,-1061823,-2421131,164445021,-32776,10502,39119,61,f0fafe00,0.0,0.0,0.0,0.0,0.0,0.0
2026-05-25 09:32:18.367724,1779715938.367724,-1061823,-2421131,164445021,-32776,10502,39119,61,f0fafe00,0.0,0.0,0.0,0.0,0.0,0.0
2026-05-25 09:32:18.376441,1779715938.376441,-988447,-2456636,164433547,-5214,-30016,24722,61,f0fafe00,0.0,0.0,0.0,0.0,0.0,0.0
2026-05-25 09:32:18.385502,1779715938.385502,-988447,-2456636,164433547,-5214,-30016,24722,61,f0fafe00,0.0,0.0,0.0,0.0,0.0,0.0
2026-05-25 09:32:18.392339,1779715938.392339,-930903,-2522041,164387267,-3739,-21937,29914,61,f0fafe00,0.0,0.0,0.0,0.0,0.0,0.0
2026-05-25 09:32:18.400371,1779715938.400371,-930903,-2522041,164387267,-3739,-21937,29914,61,f0fafe00,0.0,0.0,0.0,0.0,0.0,0.0
2026-05-25 09:32:18.407330,1779715938.407330,-961922,-2593315,164382781,28490,-20767,27838,61,f0fafe00,0.0,0.0,0.0,0.0,0.0,0.0
2026-05-25 09:32:18.416335,1779715938.416335,-961922,-2593315,164382781,28490,-20767,27838,61,f0fafe00,0.0,0.0,0.0,0.0,0.0,0.0
2026-05-25 09:32:18.423381,1779715938.423381,-1007925,-2612345,164393256,57920,-21485,26764,61,f0fafe00,0.0,0.0,0.0,0.0,0.0,0.0
2026-05-25 09:32:18.433905,1779715938.433905,-1007925,-2612345,164393256,57920,-21485,26764,61,f0fafe00,0.0,0.0,0.0,0.0,0.0,0.0
2026-05-25 09:32:18.441543,1779715938.441543,-1065949,-2624956,164375990,60374,-47760,6951,61,f0fafe00,0.0,0.0,0.0,0.0,0.0,0.0
2026-05-25 09:32:18.450567,1779715938.450567,-1065949,-2624956,164375990,60374,-47760,6951,61,f0fafe00,0.0,0.0,0.0,0.0,0.0,0.0
2026-05-25 09:32:18.458149,1779715938.458149,-1023941,-2627162,164359230,31613,-55181,-10871,61,f0fafe00,0.0,0.0,0.0,0.0,0.0,0.0
2026-05-25 09:32:18.467521,1779715938.467521,-1023941,-2627162,164359230,31613,-55181,-10871,61,f0fafe00,0.0,0.0,0.0,0.0,0.0,0.0
2026-05-25 09:32:18.475031,1779715938.475031,-875316,-2638265,164329121,10752,-52620,-20932,61,f0fafe00,0.0,0.0,0.0,0.0,0.0,0.0
2026-05-25 09:32:18.487152,1779715938.487152,-875316,-2638265,164329121,10752,-52620,-20932,61,f0fafe00,0.0,0.0,0.0,0.0,0.0,0.0
2026-05-25 09:32:18.495905,1779715938.495905,-693014,-2633232,164306636,-2687,8382,-19040,61,f0fafe00,0.0,0.0,0.0,0.0,0.0,0.0
2026-05-25 09:32:18.504474,1779715938.504474,-693014,-2633232,164306636,-2687,8382,-19040,61,f0fafe00,0.0,0.0,0.0,0.0,0.0,0.0
2026-05-25 09:32:18.510691,1779715938.510691,-620989,-2555697,164325456,28922,66457,7020,61,f0fafe00,0.0,0.0,0.0,0.0,0.0,0.0
2026-05-25 09:32:18.519989,1779715938.519989,-620989,-2555697,164325456,28922,66457,7020,61,f0fafe00,0.0,0.0,0.0,0.0,0.0,0.0
2026-05-25 09:32:18.527627,1779715938.527627,-656662,-2487148,164291189,22954,152632,16431,61,f0fafe00,0.0,0.0,0.0,0.0,0.0,0.0
2026-05-25 09:32:18.536946,1779715938.536946,-656662,-2487148,164291189,22954,152632,16431,61,f0fafe00,0.0,0.0,0.0,0.0,0.0,0.0
2026-05-25 09:32:18.545968,1779715938.545968,-860119,-2483477,164442604,48469,171903,41998,61,f0fafe00,0.0,0.0,0.0,0.0,0.0,0.0
2026-05-25 09:32:18.559724,1779715938.559724,-860119,-2483477,164442604,48469,171903,41998,61,f0fafe00,0.0,0.0,0.0,0.0,0.0,0.0
2026-05-25 09:32:18.572088,1779715938.572088,-860119,-2483477,164442604,48469,171903,41998,61,f0fafe00,0.0,0.0,0.0,0.0,0.0,0.0
2026-05-25 09:32:18.579752,1779715938.579752,-1228416,-2484972,164560532,80408,74123,46294,61,f0fafe00,0.0,0.0,0.0,0.0,0.0,0.0
2026-05-25 09:32:18.589369,1779715938.589369,-1228416,-2484972,164560532,80408,74123,46294,61,f0fafe00,0.0,0.0,0.0,0.0,0.0,0.0
2026-05-25 09:32:18.598011,1779715938.598011,-1237805,-2397416,164351753,69653,-18782,21657,61,f0fbfe00,0.0,0.0,0.0,0.0,0.0,0.0
2026-05-25 09:32:18.607822,1779715938.607822,-1237805,-2397416,164351753,69653,-18782,21657,61,f0fbfe00,0.0,0.0,0.0,0.0,0.0,0.0
2026-05-25 09:32:18.616325,1779715938.616325,-1098324,-2513011,164469091,42618,-25137,1385,61,f0fafe00,0.0,0.0,0.0,0.0,0.0,0.0
2026-05-25 09:32:18.632746,1779715938.632746,-1098324,-2513011,164469091,42618,-25137,1385,61,f0fafe00,0.0,0.0,0.0,0.0,0.0,0.0
2026-05-25 09:32:18.643698,1779715938.643698,-925192,-2504408,164363965,8168,-34832,-2557,61,f0fafe00,0.0,0.0,0.0,0.0,0.0,0.0
2026-05-25 09:32:18.653053,1779715938.653053,-925192,-2504408,164363965,8168,-34832,-2557,61,f0fafe00,0.0,0.0,0.0,0.0,0.0,0.0
2026-05-25 09:32:18.664681,1779715938.664681,-734849,-2732993,164485587,29865,15570,11199,61,f0fafe00,0.0,0.0,0.0,0.0,0.0,0.0
2026-05-25 09:32:18.677153,1779715938.677153,-734849,-2732993,164485587,29865,15570,11199,61,f0fafe00,0.0,0.0,0.0,0.0,0.0,0.0
2026-05-25 09:32:18.692016,1779715938.692016,-772803,-2656164,164375670,32143,-1373,34207,61,f0fafe00,0.0,0.0,0.0,0.0,0.0,0.0
2026-05-25 09:32:18.709545,1779715938.709545,-772803,-2656164,164375670,32143,-1373,34207,61,f0fafe00,0.0,0.0,0.0,0.0,0.0,0.0
2026-05-25 09:32:18.723116,1779715938.723116,-769965,-2653923,164385432,44486,14779,24878,61,f0fafe00,0.0,0.0,0.0,0.0,0.0,0.0
2026-05-25 09:32:18.732362,1779715938.732362,-769965,-2653923,164385432,44486,14779,24878,61,f0fafe00,0.0,0.0,0.0,0.0,0.0,0.0
2026-05-25 09:32:18.739410,1779715938.739410,-997000,-2477751,164326297,42503,2756,-5852,61,f0fafe00,0.0,0.0,0.0,0.0,0.0,0.0
2026-05-25 09:32:18.753927,1779715938.753927,-997000,-2477751,164326297,42503,2756,-5852,61,f0fafe00,0.0,0.0,0.0,0.0,0.0,0.0
2026-05-25 09:32:18.767720,1779715938.767720,-1010749,-2451789,164389315,49801,157,-24666,61,f0fafe00,0.0,0.0,0.0,0.0,0.0,0.0
2026-05-25 09:32:18.784426,1779715938.784426,-1010749,-2451789,164389315,49801,157,-24666,61,f0fafe00,0.0,0.0,0.0,0.0,0.0,0.0
2026-05-25 09:32:18.796944,1779715938.796944,-1097956,-2393808,164394136,44591,-25015,-38902,61,f0fafe00,0.0,0.0,0.0,0.0,0.0,0.0
2026-05-25 09:32:18.805883,1779715938.805883,-1097956,-2393808,164394136,44591,-25015,-38902,61,f0fafe00,0.0,0.0,0.0,0.0,0.0,0.0
2026-05-25 09:32:18.813439,1779715938.813439,-969488,-2430539,164427231,14828,-87253,-16844,61,f0fafe00,0.0,0.0,0.0,0.0,0.0,0.0
2026-05-25 09:32:18.823973,1779715938.823973,-969488,-2430539,164427231,14828,-87253,-16844,61,f0fafe00,0.0,0.0,0.0,0.0,0.0,0.0
2026-05-25 09:32:18.830720,1779715938.830720,-966779,-2429891,164387875,49206,-93051,10260,61,f0fafe00,0.0,0.0,0.0,0.0,0.0,0.0
2026-05-25 09:32:18.838775,1779715938.838775,-966779,-2429891,164387875,49206,-93051,10260,61,f0fafe00,0.0,0.0,0.0,0.0,0.0,0.0
2026-05-25 09:32:18.845947,1779715938.845947,-794184,-2505649,164316672,30929,-117686,36539,61,f0fafe00,0.0,0.0,0.0,0.0,0.0,0.0
2026-05-25 09:32:18.855079,1779715938.855079,-794184,-2505649,164316672,30929,-117686,36539,61,f0fafe00,0.0,0.0,0.0,0.0,0.0,0.0
2026-05-25 09:32:18.868187,1779715938.868187,-740443,-2549142,164250656,36790,-44108,55000,61,f0fafe00,0.0,0.0,0.0,0.0,0.0,0.0
2026-05-25 09:32:18.880145,1779715938.880145,-740443,-2549142,164250656,36790,-44108,55000,61,f0fafe00,0.0,0.0,0.0,0.0,0.0,0.0
2026-05-25 09:32:18.887348,1779715938.887348,-670304,-2609678,164232886,16503,-955,31062,61,f0fafe00,0.0,0.0,0.0,0.0,0.0,0.0
2026-05-25 09:32:18.904710,1779715938.904710,-670304,-2609678,164232886,16503,-955,31062,61,f0fafe00,0.0,0.0,0.0,0.0,0.0,0.0
2026-05-25 09:32:18.922600,1779715938.922600,-773536,-2633224,164246157,26506,94067,11278,61,f0fafe00,0.0,0.0,0.0,0.0,0.0,0.0
2026-05-25 09:32:18.931195,1779715938.931195,-773536,-2633224,164246157,26506,94067,11278,61,f0fafe00,0.0,0.0,0.0,0.0,0.0,0.0
2026-05-25 09:32:18.938863,1779715938.938863,-799958,-2657479,164278573,37216,115574,-11406,61,f0fafe00,0.0,0.0,0.0,0.0,0.0,0.0
2026-05-25 09:32:18.956525,1779715938.956525,-799958,-2657479,164278573,37216,115574,-11406,61,f0fafe00,0.0,0.0,0.0,0.0,0.0,0.0
2026-05-25 09:32:18.971026,1779715938.971026,-904131,-2627179,164326783,59306,158262,3327,61,f0fafe00,0.0,0.0,0.0,0.0,0.0,0.0
2026-05-25 09:32:18.986964,1779715938.986964,-904131,-2627179,164326783,59306,158262,3327,61,f0fafe00,0.0,0.0,0.0,0.0,0.0,0.0
2026-05-25 09:32:18.994600,1779715938.994600,-1032365,-2563839,164373425,55389,152041,14079,61,f0fafe00,0.0,0.0,0.0,0.0,0.0,0.0
2026-05-25 09:32:19.003599,1779715939.003599,-1032365,-2563839,164373425,55389,152041,14079,61,f0fafe00,0.0,0.0,0.0,0.0,0.0,0.0
2026-05-25 09:32:19.016859,1779715939.016859,-1211576,-2499834,164447646,57297,132241,6742,61,f0fafe00,0.0,0.0,0.0,0.0,0.0,0.0
2026-05-25 09:32:19.034898,1779715939.034898,-1211576,-2499834,164447646,57297,132241,6742,61,f0fafe00,0.0,0.0,0.0,0.0,0.0,0.0
2026-05-25 09:32:19.052789,1779715939.052789,-1264918,-2431558,164504938,34840,69662,1814,61,f0fafe00,0.0,0.0,0.0,0.0,0.0,0.0
2026-05-25 09:32:19.070839,1779715939.070839,-1264918,-2431558,164504938,34840,69662,1814,61,f0fafe00,0.0,0.0,0.0,0.0,0.0,0.0
2026-05-25 09:32:19.078473,1779715939.078473,-1265768,-2447221,164537991,38320,27621,9503,61,f0fafe00,0.0,0.0,0.0,0.0,0.0,0.0
2026-05-25 09:32:19.087578,1779715939.087578,-1265768,-2447221,164537991,38320,27621,9503,61,f0fafe00,0.0,0.0,0.0,0.0,0.0,0.0
2026-05-25 09:32:19.095264,1779715939.095264,-1123922,-2444345,164531000,32356,-18084,14644,61,f0fafe00,0.0,0.0,0.0,0.0,0.0,0.0
2026-05-25 09:32:19.104032,1779715939.104032,-1123922,-2444345,164531000,32356,-18084,14644,61,f0fafe00,0.0,0.0,0.0,0.0,0.0,0.0
2026-05-25 09:32:19.111508,1779715939.111508,-1003825,-2498554,164407485,11701,-31012,12467,61,f0fafe00,0.0,0.0,0.0,0.0,0.0,0.0
2026-05-25 09:32:19.121178,1779715939.121178,-1003825,-2498554,164407485,11701,-31012,12467,61,f0fafe00,0.0,0.0,0.0,0.0,0.0,0.0
2026-05-25 09:32:19.128751,1779715939.128751,-896192,-2477500,164313997,2997,-68454,26332,61,f0fafe00,0.0,0.0,0.0,0.0,0.0,0.0
2026-05-25 09:32:19.137867,1779715939.137867,-896192,-2477500,164313997,2997,-68454,26332,61,f0fafe00,0.0,0.0,0.0,0.0,0.0,0.0
2026-05-25 09:32:19.148466,1779715939.148466,-839209,-2498841,164290105,1823,-45805,2695,61,f0fafe00,0.0,0.0,0.0,0.0,0.0,0.0
2026-05-25 09:32:19.158895,1779715939.158895,-839209,-2498841,164290105,1823,-45805,2695,61,f0fafe00,0.0,0.0,0.0,0.0,0.0,0.0
2026-05-25 09:32:19.166863,1779715939.166863,-852343,-2560264,164305343,30652,-20384,9735,61,f0fafe00,0.0,0.0,0.0,0.0,0.0,0.0
2026-05-25 09:32:19.178291,1779715939.178291,-852343,-2560264,164305343,30652,-20384,9735,61,f0fafe00,0.0,0.0,0.0,0.0,0.0,0.0
2026-05-25 09:32:19.186584,1779715939.186584,-890470,-2585813,164353606,69677,4414,-7410,61,f0fafe00,0.0,0.0,0.0,0.0,0.0,0.0
2026-05-25 09:32:19.199468,1779715939.199468,-890470,-2585813,164353606,69677,4414,-7410,61,f0fafe00,0.0,0.0,0.0,0.0,0.0,0.0
2026-05-25 09:32:19.206889,1779715939.206889,-1021220,-2550418,164355602,91826,-11225,7285,61,f0fafe00,0.0,0.0,0.0,0.0,0.0,0.0
2026-05-25 09:32:19.216198,1779715939.216198,-1021220,-2550418,164355602,91826,-11225,7285,61,f0fafe00,0.0,0.0,0.0,0.0,0.0,0.0
2026-05-25 09:32:19.229822,1779715939.229822,-1101277,-2517448,164386652,84986,-28394,-4512,61,f0fafe00,0.0,0.0,0.0,0.0,0.0,0.0
2026-05-25 09:32:19.243324,1779715939.243324,-1101277,-2517448,164386652,84986,-28394,-4512,61,f0fafe00,0.0,0.0,0.0,0.0,0.0,0.0
2026-05-25 09:32:19.251489,1779715939.251489,-1184409,-2499658,164392629,38599,-72715,5770,61,f0fafe00,0.0,0.0,0.0,0.0,0.0,0.0
2026-05-25 09:32:19.262667,1779715939.262667,-1184409,-2499658,164392629,38599,-72715,5770,61,f0fafe00,0.0,0.0,0.0,0.0,0.0,0.0
2026-05-25 09:32:19.270811,1779715939.270811,-1075717,-2547435,164389720,5902,-73875,-1102,61,f0fafe00,0.0,0.0,0.0,0.0,0.0,0.0
2026-05-25 09:32:19.282505,1779715939.282505,-1075717,-2547435,164389720,5902,-73875,-1102,61,f0fafe00,0.0,0.0,0.0,0.0,0.0,0.0
2026-05-25 09:32:19.290815,1779715939.290815,-948579,-2578355,164345399,-23994,-69192,4016,61,f0fafe00,0.0,0.0,0.0,0.0,0.0,0.0
2026-05-25 09:32:19.302048,1779715939.302048,-948579,-2578355,164345399,-23994,-69192,4016,61,f0fafe00,0.0,0.0,0.0,0.0,0.0,0.0
2026-05-25 09:32:19.308808,1779715939.308808,-680107,-2591169,164251016,-18298,-10865,-2455,61,f0fafe00,0.0,0.0,0.0,0.0,0.0,0.0
2026-05-25 09:32:19.319291,1779715939.319291,-680107,-2591169,164251016,-18298,-10865,-2455,61,f0fafe00,0.0,0.0,0.0,0.0,0.0,0.0
2026-05-25 09:32:19.328047,1779715939.328047,-628474,-2577514,164189381,-14302,52319,13157,61,f0fafe00,0.0,0.0,0.0,0.0,0.0,0.0
2026-05-25 09:32:19.346642,1779715939.346642,-628474,-2577514,164189381,-14302,52319,13157,61,f0fafe00,0.0,0.0,0.0,0.0,0.0,0.0
2026-05-25 09:32:19.361104,1779715939.361104,-640102,-2552380,164202269,27518,130405,33687,61,f0fafe00,0.0,0.0,0.0,0.0,0.0,0.0
2026-05-25 09:32:19.380104,1779715939.380104,-640102,-2552380,164202269,27518,130405,33687,61,f0fafe00,0.0,0.0,0.0,0.0,0.0,0.0
2026-05-25 09:32:19.394067,1779715939.394067,-822710,-2461484,164275807,35873,190556,36698,61,f0fafe00,0.0,0.0,0.0,0.0,0.0,0.0
2026-05-25 09:32:19.411640,1779715939.411640,-822710,-2461484,164275807,35873,190556,36698,61,f0fafe00,0.0,0.0,0.0,0.0,0.0,0.0
2026-05-25 09:32:19.425813,1779715939.425813,-960579,-2447860,164357737,43370,232944,4547,61,f0fafe00,0.0,0.0,0.0,0.0,0.0,0.0
2026-05-25 09:32:19.443258,1779715939.443258,-960579,-2447860,164357737,43370,232944,4547,61,f0fafe00,0.0,0.0,0.0,0.0,0.0,0.0
2026-05-25 09:32:19.469734,1779715939.469734,-1150676,-2436326,164595554,34439,171664,11495,61,f0fafe00,0.0,0.0,0.0,0.0,0.0,0.0
2026-05-25 09:32:19.482383,1779715939.482383,-1150676,-2436326,164595554,34439,171664,11495,61,f0fafe00,0.0,0.0,0.0,0.0,0.0,0.0
2026-05-25 09:32:19.491406,1779715939.491406,-1185493,-2435768,164438613,54650,101822,10628,61,f0fafe00,0.0,0.0,0.0,0.0,0.0,0.0
2026-05-25 09:32:19.499812,1779715939.499812,-1185493,-2435768,164438613,54650,101822,10628,61,f0fafe00,0.0,0.0,0.0,0.0,0.0,0.0
2026-05-25 09:32:19.506513,1779715939.506513,-1378373,-2524145,164620122,33827,42604,16142,61,f0fafe00,0.0,0.0,0.0,0.0,0.0,0.0
2026-05-25 09:32:19.515241,1779715939.515241,-1378373,-2524145,164620122,33827,42604,16142,61,f0fafe00,0.0,0.0,0.0,0.0,0.0,0.0
2026-05-25 09:32:19.522877,1779715939.522877,-1309500,-2535473,164299988,19398,-50836,-12089,61,f0fafe00,0.0,0.0,0.0,0.0,0.0,0.0
2026-05-25 09:32:19.531504,1779715939.531504,-1309500,-2535473,164299988,19398,-50836,-12089,61,f0fafe00,0.0,0.0,0.0,0.0,0.0,0.0
2026-05-25 09:32:19.539249,1779715939.539249,-1275759,-2803953,164525591,-3916,-54778,-19084,61,f0fbfe00,0.0,0.0,0.0,0.0,0.0,0.0
2026-05-25 09:32:19.547935,1779715939.547935,-1275759,-2803953,164525591,-3916,-54778,-19084,61,f0fbfe00,0.0,0.0,0.0,0.0,0.0,0.0
2026-05-25 09:32:19.555316,1779715939.555316,-968867,-2737020,164255241,6168,-141391,-41332,61,f0fafe00,0.0,0.0,0.0,0.0,0.0,0.0
2026-05-25 09:32:19.565330,1779715939.565330,-968867,-2737020,164255241,6168,-141391,-41332,61,f0fafe00,0.0,0.0,0.0,0.0,0.0,0.0
2026-05-25 09:32:19.572242,1779715939.572242,-699154,-2845597,164430559,49842,-78288,-33337,61,f0fafe00,0.0,0.0,0.0,0.0,0.0,0.0
2026-05-25 09:32:19.580324,1779715939.580324,-699154,-2845597,164430559,49842,-78288,-33337,61,f0fafe00,0.0,0.0,0.0,0.0,0.0,0.0
2026-05-25 09:32:19.586672,1779715939.586672,-605551,-2560975,164179770,74134,-87397,-30612,61,f0fafe00,0.0,0.0,0.0,0.0,0.0,0.0
2026-05-25 09:32:19.594568,1779715939.594568,-605551,-2560975,164179770,74134,-87397,-30612,61,f0fafe00,0.0,0.0,0.0,0.0,0.0,0.0
2026-05-25 09:32:19.600833,1779715939.600833,-626849,-2556134,164319721,107917,23963,11091,61,f0fafe00,0.0,0.0,0.0,0.0,0.0,0.0
2026-05-25 09:32:19.608681,1779715939.608681,-626849,-2556134,164319721,107917,23963,11091,61,f0fafe00,0.0,0.0,0.0,0.0,0.0,0.0
2026-05-25 09:32:19.615087,1779715939.615087,-943754,-2261923,164228698,82624,32706,45862,61,f0fafe00,0.0,0.0,0.0,0.0,0.0,0.0
2026-05-25 09:32:19.629182,1779715939.629182,-943754,-2261923,164228698,82624,32706,45862,61,f0fafe00,0.0,0.0,0.0,0.0,0.0,0.0
2026-05-25 09:32:19.646276,1779715939.646276,-1068322,-2317923,164443745,57027,74100,34435,61,f0fafe00,0.0,0.0,0.0,0.0,0.0,0.0
2026-05-25 09:32:19.653556,1779715939.653556,-1068322,-2317923,164443745,57027,74100,34435,61,f0fafe00,0.0,0.0,0.0,0.0,0.0,0.0
2026-05-25 09:32:19.659156,1779715939.659156,-1288940,-2194293,164407782,7183,-2178,12070,61,f0fafe00,0.0,0.0,0.0,0.0,0.0,0.0
2026-05-25 09:32:19.666236,1779715939.666236,-1288940,-2194293,164407782,7183,-2178,12070,61,f0fafe00,0.0,0.0,0.0,0.0,0.0,0.0
2026-05-25 09:32:19.671846,1779715939.671846,-1074832,-2404409,164523302,7210,-6792,-17743,61,f0fafe00,0.0,0.0,0.0,0.0,0.0,0.0
2026-05-25 09:32:19.678926,1779715939.678926,-1074832,-2404409,164523302,7210,-6792,-17743,61,f0fafe00,0.0,0.0,0.0,0.0,0.0,0.0
2026-05-25 09:32:19.684807,1779715939.684807,-1018078,-2472448,164318895,6951,-44080,-25174,61,f0fafe00,0.0,0.0,0.0,0.0,0.0,0.0
2026-05-25 09:32:19.692134,1779715939.692134,-1018078,-2472448,164318895,6951,-44080,-25174,61,f0fafe00,0.0,0.0,0.0,0.0,0.0,0.0
2026-05-25 09:32:19.700150,1779715939.700150,-657820,-2724420,164301768,9870,2495,-10090,61,f0fafe00,0.0,0.0,0.0,0.0,0.0,0.0
2026-05-25 09:32:19.708128,1779715939.708128,-657820,-2724420,164301768,9870,2495,-10090,61,f0fafe00,0.0,0.0,0.0,0.0,0.0,0.0
2026-05-25 09:32:19.713658,1779715939.713658,-714298,-2704026,164162519,27950,61214,9638,61,f0fafe00,0.0,0.0,0.0,0.0,0.0,0.0
2026-05-25 09:32:19.720578,1779715939.720578,-714298,-2704026,164162519,27950,61214,9638,61,f0fafe00,0.0,0.0,0.0,0.0,0.0,0.0
2026-05-25 09:32:19.726030,1779715939.726030,-638491,-2819989,164265152,24168,133855,14198,61,f0fafe00,0.0,0.0,0.0,0.0,0.0,0.0
2026-05-25 09:32:19.732877,1779715939.732877,-638491,-2819989,164265152,24168,133855,14198,61,f0fafe00,0.0,0.0,0.0,0.0,0.0,0.0
2026-05-25 09:32:19.738859,1779715939.738859,-962119,-2706136,164327684,61120,177235,15107,61,f0fafe00,0.0,0.0,0.0,0.0,0.0,0.0
2026-05-25 09:32:19.746010,1779715939.746010,-962119,-2706136,164327684,61120,177235,15107,61,f0fafe00,0.0,0.0,0.0,0.0,0.0,0.0
2026-05-25 09:32:19.751668,1779715939.751668,-1008534,-2676143,164436990,54913,141295,-2385,61,f0fafe00,0.0,0.0,0.0,0.0,0.0,0.0
2026-05-25 09:32:19.759636,1779715939.759636,-1008534,-2676143,164436990,54913,141295,-2385,61,f0fafe00,0.0,0.0,0.0,0.0,0.0,0.0
2026-05-25 09:32:19.766257,1779715939.766257,-1278747,-2476087,164474605,44262,102992,-18183,61,f0fafe00,0.0,0.0,0.0,0.0,0.0,0.0
2026-05-25 09:32:19.773737,1779715939.773737,-1278747,-2476087,164474605,44262,102992,-18183,61,f0fafe00,0.0,0.0,0.0,0.0,0.0,0.0
2026-05-25 09:32:19.779457,1779715939.779457,-1204542,-2412212,164526465,25291,26255,-13225,61,f0fafe00,0.0,0.0,0.0,0.0,0.0,0.0
2026-05-25 09:32:19.786656,1779715939.786656,-1204542,-2412212,164526465,25291,26255,-13225,61,f0fafe00,0.0,0.0,0.0,0.0,0.0,0.0
2026-05-25 09:32:19.799309,1779715939.799309,-1301074,-2325392,164477511,12492,-9997,-13608,61,f0fafe00,0.0,0.0,0.0,0.0,0.0,0.0
2026-05-25 09:32:19.814652,1779715939.814652,-1301074,-2325392,164477511,12492,-9997,-13608,61,f0fafe00,0.0,0.0,0.0,0.0,0.0,0.0
