sys_datetime,unix_timestamp,raw_accel_x_lsb,raw_accel_y_lsb,raw_accel_z_lsb,raw_gyro_x_lsb,raw_gyro_y_lsb,raw_gyro_z_lsb,imu_type,imu_status_hex,veh_lat_acc_ms2,veh_long_acc_ms2,veh_vert_acc_ms2,veh_pitch_rate_degs,veh_roll_rate_degs,veh_yaw_rate_degs
2026-05-22 17:15:01.136173,1779484501.136173,744575,-1241364,163319581,-2788337,-43539,135104,61,0709fe00,,,,,,
2026-05-22 17:15:01.137965,1779484501.137965,744575,-1241364,163319581,-2788337,-43539,135104,61,0709fe00,,,,,,
2026-05-22 17:15:01.139295,1779484501.139295,1065691,-1397205,163158373,-2642615,-56933,97239,61,0709fe00,,,,,,
2026-05-22 17:15:01.140519,1779484501.140519,610354,-1417343,164293173,-2651106,220826,33266,61,0709fe00,,,,,,
2026-05-22 17:15:01.141844,1779484501.141844,732303,-1894328,165017498,-2592676,-34609,-38009,61,0709fe00,,,,,,
2026-05-22 17:15:01.143244,1779484501.143244,933509,-2639895,163868828,-2552211,-81191,-100701,61,0709fe00,,,,,,
2026-05-22 17:15:01.144464,1779484501.144464,870368,-2997403,163738049,-2295296,52705,-117344,61,0709fe00,,,,,,
2026-05-22 17:15:01.145798,1779484501.145798,420930,-3261320,165432600,-2128744,161533,-142412,61,0709fe00,,,,,,
2026-05-22 17:15:01.147153,1779484501.147153,467501,-3251908,165728881,-2144227,-110763,-185599,61,0709fe00,,,,,,
2026-05-22 17:15:01.149038,1779484501.149038,988353,-3405604,164414208,-1974460,-298163,-238334,61,0709fe00,,,,,,
2026-05-22 17:15:01.150349,1779484501.150349,1128211,-3710761,164992808,-1753099,8398,-294251,61,0709fe00,,,,,,
2026-05-22 17:15:01.151674,1779484501.151674,990791,-3724599,165871603,-1634861,45214,-302852,61,0709fe00,,,,,,
2026-05-22 17:15:01.153020,1779484501.153020,824897,-4317284,165553099,-1560467,-245817,-319661,61,0709fe00,,,,,,
2026-05-22 17:15:01.154554,1779484501.154554,1074581,-4354288,164718453,-1452630,-258195,-308672,61,0709fe00,,,,,,
2026-05-22 17:15:01.155811,1779484501.155811,1386745,-4478277,164908712,-1083336,179644,-294724,61,0709fe00,,,,,,
2026-05-22 17:15:01.157437,1779484501.157437,1190053,-4309935,165627079,-930136,119568,-267444,61,0709fe00,,,,,,
2026-05-22 17:15:01.158706,1779484501.158706,927895,-4216935,165199166,-787600,-13229,-272473,61,0709fe00,,,,,,
2026-05-22 17:15:01.159838,1779484501.159838,279773,-4291547,164460716,-517822,185860,-216801,61,0709fe00,,,,,,
2026-05-22 17:15:01.161059,1779484501.161059,74290,-4125316,164697386,-395505,178338,-200890,61,0709fe00,,,,,,
2026-05-22 17:15:01.162197,1779484501.162197,163684,-4094254,165057931,-207405,252437,-132137,61,0708fe00,,,,,,
2026-05-22 17:15:01.163215,1779484501.163215,247641,-3840028,164430310,-19749,61320,-45749,61,0708fe00,,,,,,
2026-05-22 17:15:01.164278,1779484501.164278,90284,-3309132,164577116,243014,285600,68613,61,0708fe00,,,,,,
2026-05-22 17:15:01.165637,1779484501.165637,-159750,-3247494,165019679,365884,214239,96058,61,0708fe00,,,,,,
2026-05-22 17:15:01.166783,1779484501.166783,-126941,-3191196,165294225,547278,226016,146185,61,0708fe00,,,,,,
2026-05-22 17:15:01.167894,1779484501.167894,55161,-3118205,163805231,747110,15096,188897,61,0708fe00,,,,,,
2026-05-22 17:15:01.169001,1779484501.169001,370567,-2615631,163580177,1003719,348109,242176,61,0708fe00,,,,,,
2026-05-22 17:15:01.170230,1779484501.170230,-46446,-1899704,164599976,1118666,314264,278943,61,0708fe00,,,,,,
2026-05-22 17:15:01.172082,1779484501.172082,-502338,-1077825,164262559,1124344,189001,357321,61,0708fe00,,,,,,
2026-05-22 17:15:01.173854,1779484501.173854,-598396,-503821,163905767,1230284,184306,406111,61,0708fe00,,,,,,
2026-05-22 17:15:01.175342,1779484501.175342,-969516,-83203,164261295,1248008,310584,406383,61,0708fe00,,,,,,
2026-05-22 17:15:01.176730,1779484501.176730,-690292,370405,164328285,1151480,206038,381258,61,0708fe00,,,,,,
2026-05-22 17:15:01.178031,1779484501.178031,-634911,790811,163401877,1036151,207298,369727,61,0708fe00,,,,,,
2026-05-22 17:15:01.179272,1779484501.179272,-675854,1149272,163769002,905900,405677,399670,61,0708fe00,,,,,,
2026-05-22 17:15:01.180464,1779484501.180464,-930977,1273119,164389155,797118,464501,400325,61,0708fe00,,,,,,
2026-05-22 17:15:01.181769,1779484501.181769,-1017745,1393435,165205801,691740,327560,407074,61,0708fe00,,,,,,
2026-05-22 17:15:01.183271,1779484501.183271,-832076,1133093,164312632,504842,139929,388510,61,0708fe00,,,,,,
2026-05-22 17:15:01.184962,1779484501.184962,-452384,1121866,163628161,479366,291933,344066,61,0708fe00,,,,,,
2026-05-22 17:15:01.186156,1779484501.186156,-947599,1127261,164585766,392508,442904,301132,61,0708fe00,,,,,,
2026-05-22 17:15:01.187296,1779484501.187296,-1155069,1090924,165284901,227527,329447,244646,61,0708fe00,,,,,,
2026-05-22 17:15:01.188368,1779484501.188368,-1449765,992104,164463121,112579,93731,211789,61,0708fe00,,,,,,
2026-05-22 17:15:01.189524,1779484501.189524,-1755217,838717,164519685,96055,272654,120804,61,0708fe00,,,,,,
2026-05-22 17:15:01.190764,1779484501.190764,-1674245,780083,164870530,101124,192435,87262,61,0708fe00,,,,,,
2026-05-22 17:15:01.192197,1779484501.192197,-1577031,746398,164127752,-25682,71448,-24940,61,0708fe00,,,,,,
2026-05-22 17:15:01.193424,1779484501.193424,-1491895,852556,164100110,-90216,60415,-46891,61,0708fe00,,,,,,
2026-05-22 17:15:01.194731,1779484501.194731,-1920009,736632,164745551,-243659,90811,-70150,61,0708fe00,,,,,,
2026-05-22 17:15:01.195993,1779484501.195993,-1593269,511870,164577635,-378379,-17295,-105140,61,0708fe00,,,,,,
2026-05-22 17:15:01.197143,1779484501.197143,-1294142,187478,163107914,-460267,-195484,-125458,61,0708fe00,,,,,,
2026-05-22 17:15:01.198181,1779484501.198181,-1143341,174768,163229974,-490687,129764,-131941,61,0708fe00,,,,,,
2026-05-22 17:15:01.199174,1779484501.199174,-1531879,37073,164036512,-554925,211000,-135061,61,0708fe00,,,,,,
2026-05-22 17:15:01.200146,1779484501.200146,-1782332,-215064,164972016,-699023,-21270,-119040,61,0708fe00,,,,,,
2026-05-22 17:15:01.201121,1779484501.201121,-1646293,-859611,163825374,-874471,-174501,-101812,61,0708fe00,,,,,,
2026-05-22 17:15:01.202254,1779484501.202254,-1345456,-1143922,162901894,-802802,-83649,-87393,61,0708fe00,,,,,,
2026-05-22 17:15:01.203396,1779484501.203396,-1260912,-1380543,164518368,-795944,-8975,-111352,61,0707fe00,,,,,,
2026-05-22 17:15:01.204569,1779484501.204569,-1307845,-1512022,164603659,-836622,-82113,-94714,61,0707fe00,,,,,,
2026-05-22 17:15:01.205737,1779484501.205737,-1154921,-2079652,163810462,-802917,-244741,-73734,61,0707fe00,,,,,,
2026-05-22 17:15:01.206908,1779484501.206908,-1028223,-2504608,163269873,-696343,-99460,-51886,61,0707fe00,,,,,,
2026-05-22 17:15:01.208077,1779484501.208077,-719916,-2702094,164189658,-519762,-7657,-35866,61,0708fe00,,,,,,
2026-05-22 17:15:01.209202,1779484501.209202,-763516,-2809770,163970182,-496827,-86070,-21512,61,0707fe00,,,,,,
2026-05-22 17:15:01.210335,1779484501.210335,-471612,-2793591,163615660,-336229,-325103,7556,61,0707fe00,,,,,,
2026-05-22 17:15:01.211617,1779484501.211617,-701416,-2751566,163852452,-200013,-4025,11333,61,0707fe00,,,,,,
2026-05-22 17:15:01.213190,1779484501.213190,-581833,-2838248,164643510,-54403,-106824,21462,61,0707fe00,,,,,,
2026-05-22 17:15:01.214647,1779484501.214647,-151855,-2857735,163074338,24698,-216568,45398,61,0707fe00,,,,,,
2026-05-22 17:15:01.215920,1779484501.215920,-28127,-2384108,162965443,144739,151518,104862,61,0707fe00,,,,,,
2026-05-22 17:15:01.217179,1779484501.217179,-402492,-1978122,164581171,185731,81278,121748,61,0707fe00,,,,,,
2026-05-22 17:15:01.218636,1779484501.218636,-394360,-1767836,164971672,136442,38392,120405,61,0707fe00,,,,,,
2026-05-22 17:15:01.220059,1779484501.220059,-415129,-1954878,164559888,152641,-97186,121536,61,0707fe00,,,,,,
2026-05-22 17:15:01.221271,1779484501.221271,187522,-2114097,163818407,258786,-139534,130456,61,0707fe00,,,,,,
2026-05-22 17:15:01.222584,1779484501.222584,476354,-1901497,164873254,419536,49618,125419,61,0707fe00,,,,,,
2026-05-22 17:15:01.223889,1779484501.223889,336140,-1875582,165426956,442368,-63478,124447,61,0707fe00,,,,,,
2026-05-22 17:15:01.225660,1779484501.225660,341856,-1824252,165211079,522248,-204151,102520,61,0707fe00,,,,,,
2026-05-22 17:15:01.226911,1779484501.226911,404794,-1669193,165184904,796364,23054,22003,61,0707fe00,,,,,,
2026-05-22 17:15:01.228443,1779484501.228443,452077,-1600676,165455628,922666,-32737,9498,61,0707fe00,,,,,,
2026-05-22 17:15:01.229897,1779484501.229897,857888,-969151,165145317,1037038,-128253,-23682,61,0707fe00,,,,,,
2026-05-22 17:15:01.231211,1779484501.231211,952510,-244993,164766245,1126326,-103191,-28598,61,0707fe00,,,,,,
2026-05-22 17:15:01.232694,1779484501.232694,764569,289900,165112042,1113529,-3128,-55055,61,0707fe00,,,,,,
2026-05-22 17:15:01.234148,1779484501.234148,908288,639756,164877460,1007323,-71957,-87151,61,0707fe00,,,,,,
2026-05-22 17:15:01.235368,1779484501.235368,898799,852427,164103478,876406,-143278,-95297,61,0707fe00,,,,,,
2026-05-22 17:15:01.236746,1779484501.236746,945028,1096235,163908172,658005,-63768,-87274,61,0707fe00,,,,,,
2026-05-22 17:15:01.238297,1779484501.238297,780515,1332034,164220790,509278,10653,-82447,61,0707fe00,,,,,,
2026-05-22 17:15:01.239617,1779484501.239617,508386,1618626,164767857,211621,-42441,-55203,61,0707fe00,,,,,,
2026-05-22 17:15:01.241177,1779484501.241177,560784,1386231,164080273,-104687,-145294,-21323,61,0707fe00,,,,,,
2026-05-22 17:15:01.243008,1779484501.243008,843093,946133,163303561,-295525,-87290,7549,61,0707fe00,,,,,,
2026-05-22 17:15:01.244744,1779484501.244744,800796,581621,163452798,-492072,15746,13739,61,0707fe00,,,,,,
2026-05-22 17:15:01.246807,1779484501.246807,725155,383302,163635502,-673664,93372,34427,61,0707fe00,,,,,,
2026-05-22 17:15:01.250585,1779484501.250585,265669,41416,163538412,-834995,73373,54250,61,0707fe00,,,,,,
2026-05-22 17:15:01.253267,1779484501.253267,-15565,-489086,163926587,-839728,224911,129668,61,0707fe00,,,,,,
2026-05-22 17:15:01.254763,1779484501.254763,61102,-1300079,164127456,-884616,70793,153770,61,0707fe00,,,,,,
2026-05-22 17:15:01.256089,1779484501.256089,517730,-1685188,163227173,-767966,111565,181847,61,0707fe00,,,,,,
2026-05-22 17:15:01.257379,1779484501.257379,73748,-2273863,163768051,-425821,267687,169397,61,0707fe00,,,,,,
2026-05-22 17:15:01.258800,1779484501.258800,-644118,-2578711,165450241,-269302,308489,158493,61,0706fe00,,,,,,
2026-05-22 17:15:01.260794,1779484501.260794,-669877,-3032727,165458271,-19756,45166,149582,61,0707fe00,,,,,,
2026-05-22 17:15:01.262574,1779484501.262574,-292945,-3158886,163954585,306092,-79670,157577,61,0706fe00,,,,,,
2026-05-22 17:15:01.263795,1779484501.263795,-107455,-2699399,164424749,721468,208908,181440,61,0706fe00,,,,,,
2026-05-22 17:15:01.264948,1779484501.264948,-444046,-2372566,166384696,946077,134069,180837,61,0706fe00,,,,,,
2026-05-22 17:15:01.266168,1779484501.266168,-311725,-2228616,166702722,1006515,34805,154244,61,0706fe00,,,,,,
2026-05-22 17:15:01.267427,1779484501.267427,-200747,-2008346,164522731,1075899,-100688,117697,61,0706fe00,,,,,,
2026-05-22 17:15:01.268570,1779484501.268570,-188733,-1746920,164495255,1193123,62740,113443,61,0706fe00,,,,,,
2026-05-22 17:15:01.269856,1779484501.269856,-640254,-1652672,166518982,1292671,246366,114239,61,0706fe00,,,,,,
2026-05-22 17:15:01.271003,1779484501.271003,-397252,-1882197,167264348,1278352,-196715,115127,61,0706fe00,,,,,,
2026-05-22 17:15:01.272068,1779484501.272068,-395131,-2132573,166498447,1337089,-237177,138979,61,0706fe00,,,,,,
2026-05-22 17:15:01.273035,1779484501.273035,-612688,-2841924,166764889,1806465,69484,140578,61,0706fe00,,,,,,
2026-05-22 17:15:01.274038,1779484501.274038,-687594,-3053061,167679981,2018278,127247,111099,61,0706fe00,,,,,,
2026-05-22 17:15:01.275018,1779484501.275018,-655342,-3334549,168153194,2186702,-177934,61326,61,0706fe00,,,,,,
2026-05-22 17:15:01.276126,1779484501.276126,115252,-3325259,166404967,2427960,-495015,30229,61,0706fe00,,,,,,
2026-05-22 17:15:01.277270,1779484501.277270,96615,-3115183,165655945,2810365,-78389,-2963,61,0706fe00,,,,,,
2026-05-22 17:15:01.278762,1779484501.278762,-515382,-3131147,168042169,3190979,-102477,-25218,61,0706fe00,,,,,,
2026-05-22 17:15:01.280220,1779484501.280220,-633066,-3269023,167547899,3215649,-271155,-45985,61,0706fe00,,,,,,
2026-05-22 17:15:01.281117,1779484501.281117,-348216,-3168376,165620016,3386302,-452313,-17561,61,0706fe00,,,,,,
2026-05-22 17:15:01.282032,1779484501.282032,-515342,-2917305,165674949,3748940,-44743,50343,61,0706fe00,,,,,,
2026-05-22 17:15:01.283004,1779484501.283004,-726434,-2857405,166776493,3766103,-121536,104986,61,0706fe00,,,,,,
2026-05-22 17:15:01.283921,1779484501.283921,-748268,-2760053,165604422,3731662,-522118,123661,61,0706fe00,,,,,,
2026-05-22 17:15:01.284865,1779484501.284865,-612798,-2657473,164143655,3781951,-326822,134496,61,0706fe00,,,,,,
2026-05-22 17:15:01.285820,1779484501.285820,-797872,-2427052,164253501,3811776,-247246,114616,61,0706fe00,,,,,,
2026-05-22 17:15:01.286846,1779484501.286846,-907057,-1939088,165177956,3774931,-154067,140049,61,0706fe00,,,,,,
2026-05-22 17:15:01.287937,1779484501.287937,-1077739,-1598725,164833903,3572864,-535247,158220,61,0706fe00,,,,,,
2026-05-22 17:15:01.289086,1779484501.289086,-612744,-1343293,163490370,3440875,-561684,229663,61,0706fe00,,,,,,
2026-05-22 17:15:01.290249,1779484501.290249,-814573,-1097102,163317430,3326798,-409572,295382,61,0706fe00,,,,,,
2026-05-22 17:15:01.291475,1779484501.291475,-921980,-908742,164192953,3055972,-490333,320939,61,0706fe00,,,,,,
2026-05-22 17:15:01.292677,1779484501.292677,-963833,-806074,163960551,2998147,-671067,334483,61,0706fe00,,,,,,
2026-05-22 17:15:01.293796,1779484501.293796,-736969,-858960,163156443,2934836,-641589,324499,61,0706fe00,,,,,,
2026-05-22 17:15:01.294919,1779484501.294919,-648469,-821549,162835178,2898382,-693725,289204,61,0706fe00,,,,,,
2026-05-22 17:15:01.296130,1779484501.296130,-874779,-227578,162913734,2860187,-662378,245851,61,0706fe00,,,,,,
2026-05-22 17:15:01.297189,1779484501.297189,-835077,-65844,163342740,2907158,-819188,216135,61,0706fe00,,,,,,
2026-05-22 17:15:01.298208,1779484501.298208,-880442,-68671,163231459,2914489,-862565,163898,61,0706fe00,,,,,,
2026-05-22 17:15:01.299352,1779484501.299352,-438224,155870,162560494,3035999,-825837,116574,61,0706fe00,,,,,,
2026-05-22 17:15:01.300596,1779484501.300596,-298182,627440,161651392,3115513,-921445,82224,61,0706fe00,,,,,,
2026-05-22 17:15:01.301868,1779484501.301868,-161714,1383337,161989745,3186039,-766862,61841,61,0705fe00,,,,,,
2026-05-22 17:15:01.303471,1779484501.303471,-525457,1543617,162530967,3181896,-721216,33095,61,0705fe00,,,,,,
2026-05-22 17:15:01.305546,1779484501.305546,-658527,1773048,163227243,3209791,-927811,-19580,61,0705fe00,,,,,,
2026-05-22 17:15:01.307357,1779484501.307357,-620241,2147654,161699290,3145499,-920142,-111855,61,0705fe00,,,,,,
2026-05-22 17:15:01.308816,1779484501.308816,-528897,2463673,161582689,3157558,-847038,-127402,61,0705fe00,,,,,,
2026-05-22 17:15:01.309901,1779484501.309901,-492749,3003000,162087975,3022741,-813125,-170081,61,0705fe00,,,,,,
2026-05-22 17:15:01.311200,1779484501.311200,-400088,3554453,162445265,2775162,-838344,-188313,61,0705fe00,,,,,,
2026-05-22 17:15:01.312782,1779484501.312782,-450139,3967290,162340625,2461289,-942114,-198100,61,0706fe00,,,,,,
2026-05-22 17:15:01.314418,1779484501.314418,-462159,4330079,162195679,1974922,-742600,-188516,61,0706fe00,,,,,,
2026-05-22 17:15:01.315751,1779484501.315751,-269287,4512572,162404251,1591243,-699865,-145980,61,0706fe00,,,,,,
2026-05-22 17:15:01.316986,1779484501.316986,-229885,4667651,162013743,1109022,-719456,-80438,61,0706fe00,,,,,,
2026-05-22 17:15:01.318149,1779484501.318149,-16045,4710865,162201045,645979,-645670,-19189,61,0705fe00,,,,,,
2026-05-22 17:15:01.319307,1779484501.319307,-163015,4471425,162743932,187558,-563223,9537,61,0706fe00,,,,,,
2026-05-22 17:15:01.320652,1779484501.320652,114686,3955017,162875439,-222751,-540182,39691,61,0706fe00,,,,,,
2026-05-22 17:15:01.321965,1779484501.321965,295653,3577077,162192472,-661679,-552070,59257,61,0705fe00,,,,,,
2026-05-22 17:15:01.323681,1779484501.323681,257430,3411969,162451822,-943367,-242698,111074,61,0705fe00,,,,,,
2026-05-22 17:15:01.324884,1779484501.324884,52832,3270035,162948121,-1106514,-246671,122225,61,0705fe00,,,,,,
2026-05-22 17:15:01.326024,1779484501.326024,345377,2649880,163782568,-1385097,-299121,116303,61,0705fe00,,,,,,
2026-05-22 17:15:01.327304,1779484501.327304,385731,1613407,163452604,-1611221,-374868,146318,61,0705fe00,,,,,,
2026-05-22 17:15:01.328952,1779484501.328952,478494,1436657,163594504,-1672472,-259324,141745,61,0705fe00,,,,,,
2026-05-22 17:15:01.330243,1779484501.330243,187755,912036,164082156,-1749612,-221390,146539,61,0705fe00,,,,,,
2026-05-22 17:15:01.331485,1779484501.331485,358576,435709,164551532,-1737017,-244678,138285,61,0705fe00,,,,,,
2026-05-22 17:15:01.332798,1779484501.332798,415533,-165153,163998098,-1690458,-364319,128196,61,0705fe00,,,,,,
2026-05-22 17:15:01.334319,1779484501.334319,694815,-510560,163967095,-1519473,-95733,120483,61,0705fe00,,,,,,
2026-05-22 17:15:01.335526,1779484501.335526,424275,-686248,165188012,-1365335,-157842,87305,61,0705fe00,,,,,,
2026-05-22 17:15:01.336833,1779484501.336833,248353,-781606,164847645,-1365504,-260215,73834,61,0705fe00,,,,,,
2026-05-22 17:15:01.338335,1779484501.338335,328709,-808916,164701215,-1266101,-296372,66133,61,0705fe00,,,,,,
2026-05-22 17:15:01.340038,1779484501.340038,249933,-1094705,164983175,-1133068,-176987,32740,61,0705fe00,,,,,,
2026-05-22 17:15:01.341370,1779484501.341370,431470,-1097717,165017767,-1109841,-129283,21400,61,0705fe00,,,,,,
2026-05-22 17:15:01.342958,1779484501.342958,179519,-1085269,164794268,-1113186,-224790,33027,61,0705fe00,,,,,,
2026-05-22 17:15:01.344408,1779484501.344408,152329,-1184762,165148080,-1118045,-126522,35042,61,0705fe00,,,,,,
2026-05-22 17:15:01.346013,1779484501.346013,13976,-1390717,165538215,-1119887,-212609,31735,61,0705fe00,,,,,,
2026-05-22 17:15:01.347335,1779484501.347335,76099,-1442868,165603246,-1101440,-228218,21283,61,0705fe00,,,,,,
2026-05-22 17:15:01.348704,1779484501.348704,187558,-1781847,164953167,-1137714,-306337,8589,61,0705fe00,,,,,,
2026-05-22 17:15:01.350250,1779484501.350250,574000,-1935406,164534418,-1088666,-250150,24084,61,0705fe00,,,,,,
2026-05-22 17:15:01.351445,1779484501.351445,362068,-2167648,165139302,-1048034,-136196,31683,61,0705fe00,,,,,,
2026-05-22 17:15:01.352615,1779484501.352615,564279,-2348430,165448029,-1025841,-188664,42716,61,0705fe00,,,,,,
2026-05-22 17:15:01.353831,1779484501.353831,487262,-2538704,164666027,-929995,-251053,33261,61,0704fe00,,,,,,
2026-05-22 17:15:01.355064,1779484501.355064,550873,-2675554,164467865,-713568,-11179,32442,61,0704fe00,,,,,,
2026-05-22 17:15:01.356135,1779484501.356135,261540,-2771834,164790502,-602192,-112517,19525,61,0705fe00,,,,,,
2026-05-22 17:15:01.357255,1779484501.357255,256744,-2639051,164656135,-472661,-48982,21622,61,0705fe00,,,,,,
2026-05-22 17:15:01.358463,1779484501.358463,-180900,-2573954,164706735,-202601,-107918,42188,61,0704fe00,,,,,,
2026-05-22 17:15:01.359487,1779484501.359487,-82798,-2588419,164850192,61,-32715,40014,61,0704fe00,,,,,,
2026-05-22 17:15:01.360574,1779484501.360574,-53197,-2430050,164462006,161063,-39681,65554,61,0704fe00,,,,,,
2026-05-22 17:15:01.361791,1779484501.361791,273408,-2148910,163771586,358915,-140690,47525,61,0704fe00,,,,,,
2026-05-22 17:15:01.363136,1779484501.363136,123875,-1739064,163686304,517286,158722,75750,61,0705fe00,,,,,,
2026-05-22 17:15:01.364428,1779484501.364428,-215936,-1462300,164939924,641743,94317,74307,61,0704fe00,,,,,,
2026-05-22 17:15:01.365564,1779484501.365564,-214300,-1391913,165061874,649784,54715,71390,61,0704fe00,,,,,,
2026-05-22 17:15:01.366666,1779484501.366666,-236092,-1229138,164075178,651590,-33246,98824,61,0704fe00,,,,,,
2026-05-22 17:15:01.367969,1779484501.367969,-19261,-816561,163375741,805988,140412,143158,61,0704fe00,,,,,,
2026-05-22 17:15:01.369978,1779484501.369978,-71471,-436556,163638263,861830,205053,130312,61,0704fe00,,,,,,
2026-05-22 17:15:01.371619,1779484501.371619,-158447,106120,163890202,794919,245366,129527,61,0704fe00,,,,,,
2026-05-22 17:15:01.373166,1779484501.373166,-727862,472124,164440145,719314,206853,149206,61,0705fe00,,,,,,
2026-05-22 17:15:01.374339,1779484501.374339,-1060204,561965,164747505,626663,161956,181157,61,0704fe00,,,,,,
2026-05-22 17:15:01.375565,1779484501.375565,-491224,487614,163973639,611379,125873,217691,61,0704fe00,,,,,,
2026-05-22 17:15:01.376750,1779484501.376750,-6814,634064,162844486,555640,-880,209251,61,0704fe00,,,,,,
2026-05-22 17:15:01.377854,1779484501.377854,-9710,1169679,163408348,490117,357090,212648,61,0704fe00,,,,,,
2026-05-22 17:15:01.379287,1779484501.379287,-911685,1387275,165444343,379578,243942,165613,61,0704fe00,,,,,,
2026-05-22 17:15:01.380908,1779484501.380908,-846096,1073688,165247331,181030,61839,118748,61,0704fe00,,,,,,
2026-05-22 17:15:01.382145,1779484501.382145,-430185,863053,163028994,131173,-86089,102125,61,0704fe00,,,,,,
2026-05-22 17:15:01.383482,1779484501.383482,-275779,1208028,162873882,156122,234221,117644,61,0704fe00,,,,,,
2026-05-22 17:15:01.385380,1779484501.385380,-598781,1362128,164637600,144828,194333,119982,61,0704fe00,,,,,,
2026-05-22 17:15:01.386965,1779484501.386965,-989778,1152575,165250203,-78544,44461,109147,61,0704fe00,,,,,,
2026-05-22 17:15:01.388131,1779484501.388131,-1076786,1013202,164832799,-96667,-163871,66192,61,0704fe00,,,,,,
2026-05-22 17:15:01.389286,1779484501.389286,-658851,866676,163573015,-140242,-88498,17673,61,0704fe00,,,,,,
2026-05-22 17:15:01.390670,1779484501.390670,-545480,850547,164122370,-134572,-116618,5025,61,0704fe00,,,,,,
2026-05-22 17:15:01.391853,1779484501.391853,-269291,1006279,164964735,-147817,-200840,-13954,61,0704fe00,,,,,,
2026-05-22 17:15:01.393091,1779484501.393091,-9939,732461,164458782,-266649,-518626,-35736,61,0704fe00,,,,,,
2026-05-22 17:15:01.394270,1779484501.394270,199389,429473,163724481,-269606,-205994,-53059,61,0703fe00,,,,,,
2026-05-22 17:15:01.396029,1779484501.396029,241984,255930,164660715,-238867,-127874,-69600,61,0704fe00,,,,,,
2026-05-22 17:15:01.397358,1779484501.397358,89965,15518,164617188,-374146,-276536,-78192,61,0704fe00,,,,,,
2026-05-22 17:15:01.398593,1779484501.398593,233575,41091,164528947,-383531,-411617,-52093,61,0704fe00,,,,,,
2026-05-22 17:15:01.399759,1779484501.399759,134655,-127674,164133188,-472351,-226739,-66349,61,0704fe00,,,,,,
2026-05-22 17:15:01.400828,1779484501.400828,384233,-245226,164226114,-416993,-234391,-77919,61,0704fe00,,,,,,
2026-05-22 17:15:01.401896,1779484501.401896,119159,-561901,164015111,-421715,-161135,-85764,61,0704fe00,,,,,,
2026-05-22 17:15:01.402973,1779484501.402973,124662,-704682,164618851,-425820,-113891,-58322,61,0703fe00,,,,,,
2026-05-22 17:15:01.403988,1779484501.403988,-18886,-794225,164729115,-451905,-88943,-36768,61,0704fe00,,,,,,
2026-05-22 17:15:01.405169,1779484501.405169,268522,-916486,164225845,-437360,-153409,5338,61,0704fe00,,,,,,
2026-05-22 17:15:01.406195,1779484501.406195,370210,-1026283,163797506,-403953,-184034,11492,61,0704fe00,,,,,,
2026-05-22 17:15:01.407147,1779484501.407147,615283,-1022521,163806127,-330837,-135790,44359,61,0704fe00,,,,,,
2026-05-22 17:15:01.408086,1779484501.408086,346834,-1429275,164996368,-283347,-92476,31963,61,0703fe00,,,,,,
2026-05-22 17:15:01.409029,1779484501.409029,401881,-1528647,164674492,-302532,-114637,28819,61,0703fe00,,,,,,
2026-05-22 17:15:01.410013,1779484501.410013,402081,-1761822,163412810,-256336,-90973,57692,61,0703fe00,,,,,,
2026-05-22 17:15:01.411086,1779484501.411086,97556,-1442359,163635672,-108897,164801,127875,61,0703fe00,,,,,,
2026-05-22 17:15:01.412549,1779484501.412549,-296577,-1305366,165360192,-76172,84748,169062,61,0703fe00,,,,,,
2026-05-22 17:15:01.413846,1779484501.413846,-67044,-1374183,165116551,-84757,-82337,156563,61,0703fe00,,,,,,
2026-05-22 17:15:01.415011,1779484501.415011,223459,-1581045,163677818,-7382,-171923,161259,61,0703fe00,,,,,,
2026-05-22 17:15:01.416220,1779484501.416220,147060,-1349880,164011135,136212,210584,177580,61,0703fe00,,,,,,
2026-05-22 17:15:01.417405,1779484501.417405,-19638,-1240889,164834438,199653,152146,180029,61,0703fe00,,,,,,
2026-05-22 17:15:01.418731,1779484501.418731,-151845,-1100297,164627219,159369,-192493,156918,61,0703fe00,,,,,,
2026-05-22 17:15:01.420493,1779484501.420493,165390,-1048669,163818599,249878,-87929,144020,61,0703fe00,,,,,,
2026-05-22 17:15:01.421648,1779484501.421648,84858,-841272,164321529,303258,59572,140407,61,0703fe00,,,,,,
2026-05-22 17:15:01.422857,1779484501.422857,212833,-781439,164705602,359230,29944,130935,61,0703fe00,,,,,,
2026-05-22 17:15:01.424185,1779484501.424185,57803,-586584,164415294,287065,-45754,129801,61,0703fe00,,,,,,
2026-05-22 17:15:01.425450,1779484501.425450,-397075,-303031,164221520,342185,114643,152155,61,0703fe00,,,,,,
2026-05-22 17:15:01.426655,1779484501.426655,-396967,-124484,164712921,343067,13023,109392,61,0703fe00,,,,,,
2026-05-22 17:15:01.427938,1779484501.427938,-201408,-51241,164637608,375398,33591,89603,61,0703fe00,,,,,,
2026-05-22 17:15:01.429345,1779484501.429345,-291562,-10643,163834989,331875,-62572,59100,61,0703fe00,,,,,,
2026-05-22 17:15:01.430475,1779484501.430475,-248139,180571,164292479,325067,44179,60583,61,0703fe00,,,,,,
2026-05-22 17:15:01.431614,1779484501.431614,-746402,215483,164961718,247938,8500,46711,61,0703fe00,,,,,,
2026-05-22 17:15:01.432764,1779484501.432764,-377065,200486,164799300,233928,-26290,39090,61,0703fe00,,,,,,
2026-05-22 17:15:01.434077,1779484501.434077,360558,194292,163282258,304519,-101423,30449,61,0703fe00,,,,,,
2026-05-22 17:15:01.435680,1779484501.435680,-129501,375072,164308643,253564,224886,23906,61,0703fe00,,,,,,
2026-05-22 17:15:01.437515,1779484501.437515,-108198,335091,165333842,254084,-41159,-1037,61,0703fe00,,,,,,
2026-05-22 17:15:01.439092,1779484501.439092,-412518,83926,163941984,89299,-52191,-21125,61,0703fe00,,,,,,
2026-05-22 17:15:01.440177,1779484501.440177,-163774,82694,163415989,231314,-13098,-4981,61,0703fe00,,,,,,
2026-05-22 17:15:01.441296,1779484501.441296,-555516,155890,164363148,180962,218141,11096,61,0703fe00,,,,,,
2026-05-22 17:15:01.442469,1779484501.442469,-314520,303773,165071269,170074,-51947,9001,61,0702fe00,,,,,,
2026-05-22 17:15:01.443957,1779484501.443957,-376948,226228,163889237,56073,-106045,3816,61,0703fe00,,,,,,
2026-05-22 17:15:01.445777,1779484501.445777,-321199,261616,163417872,108872,-146925,17578,61,0703fe00,,,,,,
2026-05-22 17:15:01.447061,1779484501.447061,-313678,279848,164012363,55447,141121,22540,61,0703fe00,,,,,,
2026-05-22 17:15:01.448396,1779484501.448396,-501694,218077,164830397,86850,64733,16823,61,0703fe00,,,,,,
2026-05-22 17:15:01.449998,1779484501.449998,-274126,21407,164366032,-37242,-200484,45669,61,0703fe00,,,,,,
2026-05-22 17:15:01.451489,1779484501.451489,-37093,35506,163387085,-16967,-138859,71692,61,0703fe00,,,,,,
2026-05-22 17:15:01.453064,1779484501.453064,-46637,17476,164682543,-6187,25983,104403,61,0703fe00,,,,,,
2026-05-22 17:15:01.454236,1779484501.454236,-96795,-19959,164769042,-29175,9067,91925,61,0703fe00,,,,,,
2026-05-22 17:15:01.455321,1779484501.455321,3969,-167740,163890612,-112187,-145795,87599,61,0703fe00,,,,,,
2026-05-22 17:15:01.456456,1779484501.456456,-409049,-97812,164014595,-90604,21469,91212,61,0703fe00,,,,,,
2026-05-22 17:15:01.457598,1779484501.457598,-109578,-73814,164902137,-100834,-100586,82053,61,0702fe00,,,,,,
2026-05-22 17:15:01.458725,1779484501.458725,-124639,-224900,164154896,-134236,-236024,88907,61,0702fe00,,,,,,
2026-05-22 17:15:01.459803,1779484501.459803,306002,-364229,164207123,-63801,-210650,94390,61,0703fe00,,,,,,
2026-05-22 17:15:01.460956,1779484501.460956,-14850,-461590,164676897,-117933,-128440,80377,61,0703fe00,,,,,,
2026-05-22 17:15:01.462594,1779484501.462594,412896,-540445,165160401,-84679,-97677,66736,61,0703fe00,,,,,,
2026-05-22 17:15:01.464024,1779484501.464024,322207,-800825,163811271,-149281,-292553,49479,61,0702fe00,,,,,,
2026-05-22 17:15:01.465198,1779484501.465198,763399,-758129,163648864,-59142,-324184,53294,61,0702fe00,,,,,,
2026-05-22 17:15:01.466333,1779484501.466333,514890,-499336,164068907,-30779,186963,53182,61,0702fe00,,,,,,
2026-05-22 17:15:01.467454,1779484501.467454,399091,-481481,165168133,23967,-79097,20955,61,0702fe00,,,,,,
2026-05-22 17:15:01.468809,1779484501.468809,255561,-573588,164295547,-59581,-52030,9667,61,0702fe00,,,,,,
2026-05-22 17:15:01.470159,1779484501.470159,233750,-715374,163611532,83926,-108406,15915,61,0703fe00,,,,,,
2026-05-22 17:15:01.471575,1779484501.471575,5173,-644971,164247049,50084,164921,27063,61,0702fe00,,,,,,
2026-05-22 17:15:01.473143,1779484501.473143,88502,-479825,164948680,86151,-31136,30277,61,0702fe00,,,,,,
2026-05-22 17:15:01.474385,1779484501.474385,107613,-428403,163854341,51442,-144320,9511,61,0702fe00,,,,,,
2026-05-22 17:15:01.475593,1779484501.475593,90050,-438694,163880834,93915,-36632,8145,61,0702fe00,,,,,,
2026-05-22 17:15:01.476857,1779484501.476857,-56561,-519871,165030605,81977,70789,-7223,61,0702fe00,,,,,,
2026-05-22 17:15:01.478061,1779484501.478061,-125730,-596884,164714920,65777,69353,3774,61,0702fe00,,,,,,
2026-05-22 17:15:01.479543,1779484501.479543,312922,-644559,163475368,87928,-40259,21277,61,0702fe00,,,,,,
2026-05-22 17:15:01.482022,1779484501.482022,-143632,-410620,164212001,82404,208336,32110,61,0702fe00,,,,,,
2026-05-22 17:15:01.484585,1779484501.484585,-177287,-427681,165300940,130927,36839,31167,61,0702fe00,,,,,,
2026-05-22 17:15:01.487096,1779484501.487096,-199472,-768800,164173809,62005,-64635,44422,61,0702fe00,,,,,,
2026-05-22 17:15:01.489620,1779484501.489620,-110674,-763962,163749538,142968,-67174,63694,61,0702fe00,,,,,,
2026-05-22 17:15:01.490754,1779484501.490754,-278774,-667139,163743257,196040,197137,81367,61,0702fe00,,,,,,
2026-05-22 17:15:01.491807,1779484501.491807,-345749,-462066,164691605,209723,127300,94050,61,0702fe00,,,,,,
2026-05-22 17:15:01.492955,1779484501.492955,-593126,-371857,164248766,164288,-157742,119469,61,0702fe00,,,,,,
2026-05-22 17:15:01.494320,1779484501.494320,-361068,-350173,164064943,201977,21157,146198,61,0702fe00,,,,,,
2026-05-22 17:15:01.495440,1779484501.495440,-461308,-401672,164354523,162769,6842,124852,61,0702fe00,,,,,,
2026-05-22 17:15:01.496638,1779484501.496638,-82218,-323195,164670952,228871,-49488,100969,61,0702fe00,,,,,,
2026-05-22 17:15:01.497778,1779484501.497778,-249660,-307899,163961286,189422,-131689,123197,61,0702fe00,,,,,,
2026-05-22 17:15:01.499060,1779484501.499060,-273099,-2605,164547689,193238,100849,166403,61,0701fe00,,,,,,
2026-05-22 17:15:01.501138,1779484501.501138,-208540,-243042,165145159,243266,-103931,152831,61,0701fe00,,,,,,
2026-05-22 17:15:01.507499,1779484501.507499,-208540,-243042,165145159,243266,-103931,152831,61,0701fe00,0.0,0.0,0.0,0.0,0.0,0.0
2026-05-22 17:15:01.508947,1779484501.508947,-208540,-243042,165145159,243266,-103931,152831,61,0701fe00,0.0,0.0,0.0,0.0,0.0,0.0
2026-05-22 17:15:01.510427,1779484501.510427,-208540,-243042,165145159,243266,-103931,152831,61,0701fe00,0.0,0.0,0.0,0.0,0.0,0.0
2026-05-22 17:15:01.512122,1779484501.512122,-208540,-243042,165145159,243266,-103931,152831,61,0701fe00,0.0,0.0,0.0,0.0,0.0,0.0
2026-05-22 17:15:01.513905,1779484501.513905,-208540,-243042,165145159,243266,-103931,152831,61,0701fe00,0.0,0.0,0.0,0.0,0.0,0.0
2026-05-22 17:15:01.515509,1779484501.515509,-208540,-243042,165145159,243266,-103931,152831,61,0701fe00,0.0,0.0,0.0,0.0,0.0,0.0
2026-05-22 17:15:01.517097,1779484501.517097,-208540,-243042,165145159,243266,-103931,152831,61,0701fe00,0.0,0.0,0.0,0.0,0.0,0.0
2026-05-22 17:15:01.518683,1779484501.518683,-208540,-243042,165145159,243266,-103931,152831,61,0701fe00,0.0,0.0,0.0,0.0,0.0,0.0
2026-05-22 17:15:01.520979,1779484501.520979,-208540,-243042,165145159,243266,-103931,152831,61,0701fe00,0.0,0.0,0.0,0.0,0.0,0.0
2026-05-22 17:15:01.522683,1779484501.522683,-208540,-243042,165145159,243266,-103931,152831,61,0701fe00,0.0,0.0,0.0,0.0,0.0,0.0
2026-05-22 17:15:01.524306,1779484501.524306,-208540,-243042,165145159,243266,-103931,152831,61,0701fe00,0.0,0.0,0.0,0.0,0.0,0.0
2026-05-22 17:15:01.526284,1779484501.526284,-208540,-243042,165145159,243266,-103931,152831,61,0701fe00,0.0,0.0,0.0,0.0,0.0,0.0
2026-05-22 17:15:01.528331,1779484501.528331,-208540,-243042,165145159,243266,-103931,152831,61,0701fe00,0.0,0.0,0.0,0.0,0.0,0.0
2026-05-22 17:15:01.530116,1779484501.530116,-208540,-243042,165145159,243266,-103931,152831,61,0701fe00,0.0,0.0,0.0,0.0,0.0,0.0
2026-05-22 17:15:01.531550,1779484501.531550,-208540,-243042,165145159,243266,-103931,152831,61,0701fe00,0.0,0.0,0.0,0.0,0.0,0.0
2026-05-22 17:15:01.533167,1779484501.533167,-208540,-243042,165145159,243266,-103931,152831,61,0701fe00,0.0,0.0,0.0,0.0,0.0,0.0
2026-05-22 17:15:01.535686,1779484501.535686,-208540,-243042,165145159,243266,-103931,152831,61,0701fe00,0.0,0.0,0.0,0.0,0.0,0.0
2026-05-22 17:15:01.537198,1779484501.537198,-208540,-243042,165145159,243266,-103931,152831,61,0701fe00,0.0,0.0,0.0,0.0,0.0,0.0
2026-05-22 17:15:01.538707,1779484501.538707,-208540,-243042,165145159,243266,-103931,152831,61,0701fe00,0.0,0.0,0.0,0.0,0.0,0.0
2026-05-22 17:15:01.540284,1779484501.540284,-208540,-243042,165145159,243266,-103931,152831,61,0701fe00,0.0,0.0,0.0,0.0,0.0,0.0
2026-05-22 17:15:01.541709,1779484501.541709,-208540,-243042,165145159,243266,-103931,152831,61,0701fe00,0.0,0.0,0.0,0.0,0.0,0.0
2026-05-22 17:15:01.543020,1779484501.543020,-208540,-243042,165145159,243266,-103931,152831,61,0701fe00,0.0,0.0,0.0,0.0,0.0,0.0
2026-05-22 17:15:01.544775,1779484501.544775,-208540,-243042,165145159,243266,-103931,152831,61,0701fe00,0.0,0.0,0.0,0.0,0.0,0.0
2026-05-22 17:15:01.546045,1779484501.546045,-208540,-243042,165145159,243266,-103931,152831,61,0701fe00,0.0,0.0,0.0,0.0,0.0,0.0
2026-05-22 17:15:01.547955,1779484501.547955,-208540,-243042,165145159,243266,-103931,152831,61,0701fe00,0.0,0.0,0.0,0.0,0.0,0.0
2026-05-22 17:15:01.549366,1779484501.549366,-208540,-243042,165145159,243266,-103931,152831,61,0701fe00,0.0,0.0,0.0,0.0,0.0,0.0
2026-05-22 17:15:01.551246,1779484501.551246,-208540,-243042,165145159,243266,-103931,152831,61,0701fe00,0.0,0.0,0.0,0.0,0.0,0.0
2026-05-22 17:15:01.552741,1779484501.552741,-208540,-243042,165145159,243266,-103931,152831,61,0701fe00,0.0,0.0,0.0,0.0,0.0,0.0
2026-05-22 17:15:01.553900,1779484501.553900,-208540,-243042,165145159,243266,-103931,152831,61,0701fe00,0.0,0.0,0.0,0.0,0.0,0.0
2026-05-22 17:15:01.555002,1779484501.555002,-208540,-243042,165145159,243266,-103931,152831,61,0701fe00,0.0,0.0,0.0,0.0,0.0,0.0
2026-05-22 17:15:01.555876,1779484501.555876,-193321,-336656,163989972,-60836,-180055,34962,61,06e7fe00,0.0,0.0,0.0,0.0,0.0,0.0
2026-05-22 17:15:01.558245,1779484501.558245,-193321,-336656,163989972,-60836,-180055,34962,61,06e7fe00,0.0,0.0,0.0,0.0,0.0,0.0
2026-05-22 17:15:01.559094,1779484501.559094,69467,-324412,164325709,9789,56586,46056,61,06e7fe00,0.0,0.0,0.0,0.0,0.0,0.0
2026-05-22 17:15:01.560164,1779484501.560164,69467,-324412,164325709,9789,56586,46056,61,06e7fe00,0.0,0.0,0.0,0.0,0.0,0.0
2026-05-22 17:15:01.561024,1779484501.561024,-132245,-416713,164604123,-67061,63354,49892,61,06e7fe00,0.0,0.0,0.0,0.0,0.0,0.0
2026-05-22 17:15:01.562273,1779484501.562273,-132245,-416713,164604123,-67061,63354,49892,61,06e7fe00,0.0,0.0,0.0,0.0,0.0,0.0
2026-05-22 17:15:01.563249,1779484501.563249,-142063,-337404,164576644,-55855,-164922,47506,61,06e7fe00,0.0,0.0,0.0,0.0,0.0,0.0
2026-05-22 17:15:01.564601,1779484501.564601,-142063,-337404,164576644,-55855,-164922,47506,61,06e7fe00,0.0,0.0,0.0,0.0,0.0,0.0
2026-05-22 17:15:01.565845,1779484501.565845,104990,-470563,163963576,-47359,-105253,90026,61,06e7fe00,0.0,0.0,0.0,0.0,0.0,0.0
2026-05-22 17:15:01.567538,1779484501.567538,104990,-470563,163963576,-47359,-105253,90026,61,06e7fe00,0.0,0.0,0.0,0.0,0.0,0.0
2026-05-22 17:15:01.569034,1779484501.569034,-137701,-442390,164268355,17168,-48777,83986,61,06e7fe00,0.0,0.0,0.0,0.0,0.0,0.0
2026-05-22 17:15:01.571041,1779484501.571041,-137701,-442390,164268355,17168,-48777,83986,61,06e7fe00,0.0,0.0,0.0,0.0,0.0,0.0
2026-05-22 17:15:01.572392,1779484501.572392,75513,-453192,164450514,36322,30920,92370,61,06e7fe00,0.0,0.0,0.0,0.0,0.0,0.0
2026-05-22 17:15:01.573754,1779484501.573754,75513,-453192,164450514,36322,30920,92370,61,06e7fe00,0.0,0.0,0.0,0.0,0.0,0.0
2026-05-22 17:15:01.574711,1779484501.574711,124880,-352294,163758089,7546,-160327,60864,61,06e7fe00,0.0,0.0,0.0,0.0,0.0,0.0
2026-05-22 17:15:01.575865,1779484501.575865,124880,-352294,163758089,7546,-160327,60864,61,06e7fe00,0.0,0.0,0.0,0.0,0.0,0.0
2026-05-22 17:15:01.576760,1779484501.576760,-63016,-210944,163837062,49904,78519,96678,61,06e7fe00,0.0,0.0,0.0,0.0,0.0,0.0
2026-05-22 17:15:01.578168,1779484501.578168,-63016,-210944,163837062,49904,78519,96678,61,06e7fe00,0.0,0.0,0.0,0.0,0.0,0.0
2026-05-22 17:15:01.579382,1779484501.579382,-179512,-204669,164959400,-11855,32183,86253,61,06e7fe00,0.0,0.0,0.0,0.0,0.0,0.0
2026-05-22 17:15:01.580956,1779484501.580956,-179512,-204669,164959400,-11855,32183,86253,61,06e7fe00,0.0,0.0,0.0,0.0,0.0,0.0
2026-05-22 17:15:01.581861,1779484501.581861,-250360,-389865,164349296,-30255,55923,100379,61,06e6fe00,0.0,0.0,0.0,0.0,0.0,0.0
2026-05-22 17:15:01.584878,1779484501.584878,-250360,-389865,164349296,-30255,55923,100379,61,06e6fe00,0.0,0.0,0.0,0.0,0.0,0.0
2026-05-22 17:15:01.585988,1779484501.585988,121218,-442063,163653226,29733,-16783,85738,61,06e7fe00,0.0,0.0,0.0,0.0,0.0,0.0
2026-05-22 17:15:01.587342,1779484501.587342,121218,-442063,163653226,29733,-16783,85738,61,06e7fe00,0.0,0.0,0.0,0.0,0.0,0.0
2026-05-22 17:15:01.589607,1779484501.589607,-165712,-249332,163866684,32924,140394,89440,61,06e7fe00,0.0,0.0,0.0,0.0,0.0,0.0
2026-05-22 17:15:01.591126,1779484501.591126,-165712,-249332,163866684,32924,140394,89440,61,06e7fe00,0.0,0.0,0.0,0.0,0.0,0.0
2026-05-22 17:15:01.592200,1779484501.592200,-187021,-93262,165399604,28961,-17191,76107,61,06e7fe00,0.0,0.0,0.0,0.0,0.0,0.0
2026-05-22 17:15:01.593710,1779484501.593710,-187021,-93262,165399604,28961,-17191,76107,61,06e7fe00,0.0,0.0,0.0,0.0,0.0,0.0
2026-05-22 17:15:01.595396,1779484501.595396,-93067,-127545,163780746,8948,-277447,68070,61,06e7fe00,0.0,0.0,0.0,0.0,0.0,0.0
2026-05-22 17:15:01.596956,1779484501.596956,-93067,-127545,163780746,8948,-277447,68070,61,06e7fe00,0.0,0.0,0.0,0.0,0.0,0.0
2026-05-22 17:15:01.598072,1779484501.598072,309891,-202723,163473074,144851,46716,90416,61,06e7fe00,0.0,0.0,0.0,0.0,0.0,0.0
2026-05-22 17:15:01.599489,1779484501.599489,309891,-202723,163473074,144851,46716,90416,61,06e7fe00,0.0,0.0,0.0,0.0,0.0,0.0
2026-05-22 17:15:01.601268,1779484501.601268,-183071,-272572,164782851,133053,80378,69885,61,06e6fe00,0.0,0.0,0.0,0.0,0.0,0.0
2026-05-22 17:15:01.602777,1779484501.602777,-183071,-272572,164782851,133053,80378,69885,61,06e6fe00,0.0,0.0,0.0,0.0,0.0,0.0
2026-05-22 17:15:01.603984,1779484501.603984,1898,-367590,165201816,83639,64503,81918,61,06e7fe00,0.0,0.0,0.0,0.0,0.0,0.0
2026-05-22 17:15:01.605578,1779484501.605578,1898,-367590,165201816,83639,64503,81918,61,06e7fe00,0.0,0.0,0.0,0.0,0.0,0.0
2026-05-22 17:15:01.607764,1779484501.607764,151685,-500054,163518563,30174,-264262,98638,61,06e7fe00,0.0,0.0,0.0,0.0,0.0,0.0
2026-05-22 17:15:01.609113,1779484501.609113,151685,-500054,163518563,30174,-264262,98638,61,06e7fe00,0.0,0.0,0.0,0.0,0.0,0.0
2026-05-22 17:15:01.610433,1779484501.610433,157672,-152520,163395145,153974,204450,124141,61,06e7fe00,0.0,0.0,0.0,0.0,0.0,0.0
2026-05-22 17:15:01.612074,1779484501.612074,157672,-152520,163395145,153974,204450,124141,61,06e7fe00,0.0,0.0,0.0,0.0,0.0,0.0
2026-05-22 17:15:01.614000,1779484501.614000,-378981,107504,165397673,141547,67609,102548,61,06e7fe00,0.0,0.0,0.0,0.0,0.0,0.0
2026-05-22 17:15:01.617618,1779484501.617618,-378981,107504,165397673,141547,67609,102548,61,06e7fe00,0.0,0.0,0.0,0.0,0.0,0.0
2026-05-22 17:15:01.619385,1779484501.619385,-344697,159018,165277051,17878,11153,61769,61,06e7fe00,0.0,0.0,0.0,0.0,0.0,0.0
2026-05-22 17:15:01.621376,1779484501.621376,-344697,159018,165277051,17878,11153,61769,61,06e7fe00,0.0,0.0,0.0,0.0,0.0,0.0
2026-05-22 17:15:01.624156,1779484501.624156,-349731,74203,164201209,-60718,-204632,41882,61,06e7fe00,0.0,0.0,0.0,0.0,0.0,0.0
2026-05-22 17:15:01.626130,1779484501.626130,-349731,74203,164201209,-60718,-204632,41882,61,06e7fe00,0.0,0.0,0.0,0.0,0.0,0.0
2026-05-22 17:15:01.627475,1779484501.627475,181495,-64055,163040581,14751,-83117,46275,61,06e6fe00,0.0,0.0,0.0,0.0,0.0,0.0
2026-05-22 17:15:01.629419,1779484501.629419,181495,-64055,163040581,14751,-83117,46275,61,06e6fe00,0.0,0.0,0.0,0.0,0.0,0.0
2026-05-22 17:15:01.632915,1779484501.632915,-546617,-149593,164164480,30297,206049,42126,61,06e6fe00,0.0,0.0,0.0,0.0,0.0,0.0
2026-05-22 17:15:01.635675,1779484501.635675,-546617,-149593,164164480,30297,206049,42126,61,06e6fe00,0.0,0.0,0.0,0.0,0.0,0.0
2026-05-22 17:15:01.637756,1779484501.637756,-576426,-85884,165427953,-109638,-92763,54083,61,06e6fe00,0.0,0.0,0.0,0.0,0.0,0.0
2026-05-22 17:15:01.639946,1779484501.639946,-576426,-85884,165427953,-109638,-92763,54083,61,06e6fe00,0.0,0.0,0.0,0.0,0.0,0.0
2026-05-22 17:15:01.641193,1779484501.641193,184232,-80669,163902299,-36564,-488939,42678,61,06e6fe00,0.0,0.0,0.0,0.0,0.0,0.0
2026-05-22 17:15:01.642805,1779484501.642805,184232,-80669,163902299,-36564,-488939,42678,61,06e6fe00,0.0,0.0,0.0,0.0,0.0,0.0
2026-05-22 17:15:01.645784,1779484501.645784,273812,-125511,163455787,41726,103081,29236,61,06e6fe00,0.0,0.0,0.0,0.0,0.0,0.0
2026-05-22 17:15:01.647315,1779484501.647315,273812,-125511,163455787,41726,103081,29236,61,06e6fe00,0.0,0.0,0.0,0.0,0.0,0.0
2026-05-22 17:15:01.648638,1779484501.648638,395141,-320595,165312732,97201,36074,2886,61,06e6fe00,0.0,0.0,0.0,0.0,0.0,0.0
2026-05-22 17:15:01.650848,1779484501.650848,395141,-320595,165312732,97201,36074,2886,61,06e6fe00,0.0,0.0,0.0,0.0,0.0,0.0
2026-05-22 17:15:01.652773,1779484501.652773,225907,-384761,164441852,-86672,-25291,1469,61,06e6fe00,0.0,0.0,0.0,0.0,0.0,0.0
2026-05-22 17:15:01.654320,1779484501.654320,225907,-384761,164441852,-86672,-25291,1469,61,06e6fe00,0.0,0.0,0.0,0.0,0.0,0.0
2026-05-22 17:15:01.655370,1779484501.655370,422565,-308309,163391266,-13966,-199715,4355,61,06e6fe00,0.0,0.0,0.0,0.0,0.0,0.0
2026-05-22 17:15:01.658523,1779484501.658523,422565,-308309,163391266,-13966,-199715,4355,61,06e6fe00,0.0,0.0,0.0,0.0,0.0,0.0
2026-05-22 17:15:01.660147,1779484501.660147,-361375,-72851,163872522,44939,265102,44619,61,06e6fe00,0.0,0.0,0.0,0.0,0.0,0.0
2026-05-22 17:15:01.661671,1779484501.661671,-361375,-72851,163872522,44939,265102,44619,61,06e6fe00,0.0,0.0,0.0,0.0,0.0,0.0
2026-05-22 17:15:01.662839,1779484501.662839,-347250,-63637,165884433,45546,9773,34791,61,06e6fe00,0.0,0.0,0.0,0.0,0.0,0.0
2026-05-22 17:15:01.664217,1779484501.664217,-347250,-63637,165884433,45546,9773,34791,61,06e6fe00,0.0,0.0,0.0,0.0,0.0,0.0
2026-05-22 17:15:01.665281,1779484501.665281,-358368,-220615,164310648,-94077,-181551,41047,61,06e6fe00,0.0,0.0,0.0,0.0,0.0,0.0
2026-05-22 17:15:01.666654,1779484501.666654,-358368,-220615,164310648,-94077,-181551,41047,61,06e6fe00,0.0,0.0,0.0,0.0,0.0,0.0
2026-05-22 17:15:01.667811,1779484501.667811,345661,-272554,163221326,7696,-171988,68348,61,06e6fe00,0.0,0.0,0.0,0.0,0.0,0.0
2026-05-22 17:15:01.669177,1779484501.669177,345661,-272554,163221326,7696,-171988,68348,61,06e6fe00,0.0,0.0,0.0,0.0,0.0,0.0
2026-05-22 17:15:01.670266,1779484501.670266,-381988,-295410,163931830,21825,216795,90651,61,06e6fe00,0.0,0.0,0.0,0.0,0.0,0.0
2026-05-22 17:15:01.671591,1779484501.671591,-381988,-295410,163931830,21825,216795,90651,61,06e6fe00,0.0,0.0,0.0,0.0,0.0,0.0
2026-05-22 17:15:01.672728,1779484501.672728,-268380,-231473,165825571,31863,89950,77547,61,06e6fe00,0.0,0.0,0.0,0.0,0.0,0.0
2026-05-22 17:15:01.675002,1779484501.675002,-268380,-231473,165825571,31863,89950,77547,61,06e6fe00,0.0,0.0,0.0,0.0,0.0,0.0
2026-05-22 17:15:01.676545,1779484501.676545,-305783,-434792,164259624,-89602,-315621,54415,61,06e6fe00,0.0,0.0,0.0,0.0,0.0,0.0
2026-05-22 17:15:01.677950,1779484501.677950,-305783,-434792,164259624,-89602,-315621,54415,61,06e6fe00,0.0,0.0,0.0,0.0,0.0,0.0
2026-05-22 17:15:01.679008,1779484501.679008,731343,-366539,162831147,51575,-166199,73050,61,06e6fe00,0.0,0.0,0.0,0.0,0.0,0.0
2026-05-22 17:15:01.680332,1779484501.680332,731343,-366539,162831147,51575,-166199,73050,61,06e6fe00,0.0,0.0,0.0,0.0,0.0,0.0
2026-05-22 17:15:01.681357,1779484501.681357,99505,-243119,163784597,96812,231501,55672,61,06e6fe00,0.0,0.0,0.0,0.0,0.0,0.0
2026-05-22 17:15:01.682664,1779484501.682664,99505,-243119,163784597,96812,231501,55672,61,06e6fe00,0.0,0.0,0.0,0.0,0.0,0.0
2026-05-22 17:15:01.683926,1779484501.683926,161496,-174205,165109294,145395,111575,65027,61,06e6fe00,0.0,0.0,0.0,0.0,0.0,0.0
2026-05-22 17:15:01.687510,1779484501.687510,161496,-174205,165109294,145395,111575,65027,61,06e6fe00,0.0,0.0,0.0,0.0,0.0,0.0
2026-05-22 17:15:01.688643,1779484501.688643,-253638,-339823,164260562,-80683,-188141,78895,61,06e6fe00,0.0,0.0,0.0,0.0,0.0,0.0
2026-05-22 17:15:01.689972,1779484501.689972,-253638,-339823,164260562,-80683,-188141,78895,61,06e6fe00,0.0,0.0,0.0,0.0,0.0,0.0
2026-05-22 17:15:01.691022,1779484501.691022,144040,-295497,163205152,43924,-11008,118811,61,06e6fe00,0.0,0.0,0.0,0.0,0.0,0.0
2026-05-22 17:15:01.692297,1779484501.692297,144040,-295497,163205152,43924,-11008,118811,61,06e6fe00,0.0,0.0,0.0,0.0,0.0,0.0
2026-05-22 17:15:01.693431,1779484501.693431,-269616,-265086,163997026,74730,203305,128559,61,06e6fe00,0.0,0.0,0.0,0.0,0.0,0.0
2026-05-22 17:15:01.694812,1779484501.694812,-269616,-265086,163997026,74730,203305,128559,61,06e6fe00,0.0,0.0,0.0,0.0,0.0,0.0
2026-05-22 17:15:01.695959,1779484501.695959,-143264,-228374,165173350,14641,77665,120017,61,06e6fe00,0.0,0.0,0.0,0.0,0.0,0.0
2026-05-22 17:15:01.697358,1779484501.697358,-143264,-228374,165173350,14641,77665,120017,61,06e6fe00,0.0,0.0,0.0,0.0,0.0,0.0
2026-05-22 17:15:01.698674,1779484501.698674,-293263,-235364,164285378,-74308,-247821,87895,61,06e6fe00,0.0,0.0,0.0,0.0,0.0,0.0
2026-05-22 17:15:01.700628,1779484501.700628,-293263,-235364,164285378,-74308,-247821,87895,61,06e6fe00,0.0,0.0,0.0,0.0,0.0,0.0
2026-05-22 17:15:01.702734,1779484501.702734,-122218,-260174,163667612,23133,-29117,93169,61,06e6fe00,0.0,0.0,0.0,0.0,0.0,0.0
2026-05-22 17:15:01.705175,1779484501.705175,-122218,-260174,163667612,23133,-29117,93169,61,06e6fe00,0.0,0.0,0.0,0.0,0.0,0.0
2026-05-22 17:15:01.706818,1779484501.706818,-327534,-349311,164682477,24651,115887,72860,61,06e6fe00,0.0,0.0,0.0,0.0,0.0,0.0
2026-05-22 17:15:01.708380,1779484501.708380,-327534,-349311,164682477,24651,115887,72860,61,06e6fe00,0.0,0.0,0.0,0.0,0.0,0.0
2026-05-22 17:15:01.711636,1779484501.711636,-26924,-331365,165026851,-10786,-30279,90542,61,06e6fe00,0.0,0.0,0.0,0.0,0.0,0.0
2026-05-22 17:15:01.715563,1779484501.715563,-26924,-331365,165026851,-10786,-30279,90542,61,06e6fe00,0.0,0.0,0.0,0.0,0.0,0.0
2026-05-22 17:15:01.716767,1779484501.716767,530831,-355583,163968000,-29467,-264025,90930,61,06e6fe00,0.0,0.0,0.0,0.0,0.0,0.0
2026-05-22 17:15:01.718424,1779484501.718424,530831,-355583,163968000,-29467,-264025,90930,61,06e6fe00,0.0,0.0,0.0,0.0,0.0,0.0
2026-05-22 17:15:01.719865,1779484501.719865,501744,-212480,163456002,57045,54738,93308,61,06e6fe00,0.0,0.0,0.0,0.0,0.0,0.0
2026-05-22 17:15:01.723939,1779484501.723939,501744,-212480,163456002,57045,54738,93308,61,06e6fe00,0.0,0.0,0.0,0.0,0.0,0.0
2026-05-22 17:15:01.725210,1779484501.725210,155549,-226207,164832622,70477,171439,60534,61,06e6fe00,0.0,0.0,0.0,0.0,0.0,0.0
2026-05-22 17:15:01.728437,1779484501.728437,155549,-226207,164832622,70477,171439,60534,61,06e6fe00,0.0,0.0,0.0,0.0,0.0,0.0
2026-05-22 17:15:01.729933,1779484501.729933,-260637,-231092,164864102,-22158,15016,52992,61,06e6fe00,0.0,0.0,0.0,0.0,0.0,0.0
2026-05-22 17:15:01.732035,1779484501.732035,-260637,-231092,164864102,-22158,15016,52992,61,06e6fe00,0.0,0.0,0.0,0.0,0.0,0.0
2026-05-22 17:15:01.733561,1779484501.733561,-158866,-226580,163998573,-25690,-171169,60242,61,06e6fe00,0.0,0.0,0.0,0.0,0.0,0.0
2026-05-22 17:15:01.735419,1779484501.735419,-158866,-226580,163998573,-25690,-171169,60242,61,06e6fe00,0.0,0.0,0.0,0.0,0.0,0.0
2026-05-22 17:15:01.737240,1779484501.737240,-338844,-164742,163887832,47693,36301,70737,61,06e6fe00,0.0,0.0,0.0,0.0,0.0,0.0
2026-05-22 17:15:01.738921,1779484501.738921,-338844,-164742,163887832,47693,36301,70737,61,06e6fe00,0.0,0.0,0.0,0.0,0.0,0.0
2026-05-22 17:15:01.740556,1779484501.740556,-172589,-152606,164845703,64572,41388,47746,61,06e6fe00,0.0,0.0,0.0,0.0,0.0,0.0
2026-05-22 17:15:01.742405,1779484501.742405,-172589,-152606,164845703,64572,41388,47746,61,06e6fe00,0.0,0.0,0.0,0.0,0.0,0.0
2026-05-22 17:15:01.743755,1779484501.743755,-218325,-254936,164342608,9689,-118396,30426,61,06e6fe00,0.0,0.0,0.0,0.0,0.0,0.0
2026-05-22 17:15:01.745672,1779484501.745672,-218325,-254936,164342608,9689,-118396,30426,61,06e6fe00,0.0,0.0,0.0,0.0,0.0,0.0
2026-05-22 17:15:01.747441,1779484501.747441,25176,-158109,163942687,43698,-144095,33547,61,06e6fe00,0.0,0.0,0.0,0.0,0.0,0.0
2026-05-22 17:15:01.749044,1779484501.749044,25176,-158109,163942687,43698,-144095,33547,61,06e6fe00,0.0,0.0,0.0,0.0,0.0,0.0
2026-05-22 17:15:01.750251,1779484501.750251,-502565,-41303,164439812,41764,51815,39899,61,06e5fe00,0.0,0.0,0.0,0.0,0.0,0.0
2026-05-22 17:15:01.751835,1779484501.751835,-502565,-41303,164439812,41764,51815,39899,61,06e5fe00,0.0,0.0,0.0,0.0,0.0,0.0
2026-05-22 17:15:01.753222,1779484501.753222,-212792,-46991,165202741,18713,-49701,33284,61,06e5fe00,0.0,0.0,0.0,0.0,0.0,0.0
2026-05-22 17:15:01.754795,1779484501.754795,-212792,-46991,165202741,18713,-49701,33284,61,06e5fe00,0.0,0.0,0.0,0.0,0.0,0.0
2026-05-22 17:15:01.756336,1779484501.756336,39295,-218928,163775876,-78124,-276939,35754,61,06e5fe00,0.0,0.0,0.0,0.0,0.0,0.0
2026-05-22 17:15:01.761021,1779484501.761021,39295,-218928,163775876,-78124,-276939,35754,61,06e5fe00,0.0,0.0,0.0,0.0,0.0,0.0
2026-05-22 17:15:01.762226,1779484501.762226,509604,-202601,163400607,53239,-101062,61477,61,06e5fe00,0.0,0.0,0.0,0.0,0.0,0.0
2026-05-22 17:15:01.763884,1779484501.763884,509604,-202601,163400607,53239,-101062,61477,61,06e5fe00,0.0,0.0,0.0,0.0,0.0,0.0
2026-05-22 17:15:01.765097,1779484501.765097,-148243,-153348,164833750,40139,102836,50977,61,06e5fe00,0.0,0.0,0.0,0.0,0.0,0.0
2026-05-22 17:15:01.766578,1779484501.766578,-148243,-153348,164833750,40139,102836,50977,61,06e5fe00,0.0,0.0,0.0,0.0,0.0,0.0
2026-05-22 17:15:01.767763,1779484501.767763,-2929,-228095,165471410,791,-17161,39266,61,06e6fe00,0.0,0.0,0.0,0.0,0.0,0.0
2026-05-22 17:15:01.769301,1779484501.769301,-2929,-228095,165471410,791,-17161,39266,61,06e6fe00,0.0,0.0,0.0,0.0,0.0,0.0
2026-05-22 17:15:01.770613,1779484501.770613,96096,-412455,163379570,-108280,-242369,30038,61,06e6fe00,0.0,0.0,0.0,0.0,0.0,0.0
2026-05-22 17:15:01.772559,1779484501.772559,96096,-412455,163379570,-108280,-242369,30038,61,06e6fe00,0.0,0.0,0.0,0.0,0.0,0.0
2026-05-22 17:15:01.774509,1779484501.774509,183401,-247359,162936002,97243,140634,78527,61,06e5fe00,0.0,0.0,0.0,0.0,0.0,0.0
2026-05-22 17:15:01.776852,1779484501.776852,183401,-247359,162936002,97243,140634,78527,61,06e5fe00,0.0,0.0,0.0,0.0,0.0,0.0
2026-05-22 17:15:01.778611,1779484501.778611,-604326,-99638,165186691,91831,232776,74374,61,06e5fe00,0.0,0.0,0.0,0.0,0.0,0.0
2026-05-22 17:15:01.780161,1779484501.780161,-604326,-99638,165186691,91831,232776,74374,61,06e5fe00,0.0,0.0,0.0,0.0,0.0,0.0
2026-05-22 17:15:01.781354,1779484501.781354,-580515,-18141,165779956,-16468,-24218,56643,61,06e5fe00,0.0,0.0,0.0,0.0,0.0,0.0
2026-05-22 17:15:01.783158,1779484501.783158,-580515,-18141,165779956,-16468,-24218,56643,61,06e5fe00,0.0,0.0,0.0,0.0,0.0,0.0
2026-05-22 17:15:01.784837,1779484501.784837,-90852,-144883,163123043,-66354,-437986,45345,61,06e5fe00,0.0,0.0,0.0,0.0,0.0,0.0
2026-05-22 17:15:01.786474,1779484501.786474,-90852,-144883,163123043,-66354,-437986,45345,61,06e5fe00,0.0,0.0,0.0,0.0,0.0,0.0
2026-05-22 17:15:01.787733,1779484501.787733,114768,18189,162673608,100009,142041,69357,61,06e5fe00,0.0,0.0,0.0,0.0,0.0,0.0
2026-05-22 17:15:01.789097,1779484501.789097,114768,18189,162673608,100009,142041,69357,61,06e5fe00,0.0,0.0,0.0,0.0,0.0,0.0
2026-05-22 17:15:01.790728,1779484501.790728,-404948,-118817,165419990,123212,157860,85522,61,06e5fe00,0.0,0.0,0.0,0.0,0.0,0.0
2026-05-22 17:15:01.796057,1779484501.796057,-404948,-118817,165419990,123212,157860,85522,61,06e5fe00,0.0,0.0,0.0,0.0,0.0,0.0
2026-05-22 17:15:01.797605,1779484501.797605,-294986,-187926,165833080,-95596,2062,63472,61,06e5fe00,0.0,0.0,0.0,0.0,0.0,0.0
2026-05-22 17:15:01.799208,1779484501.799208,-294986,-187926,165833080,-95596,2062,63472,61,06e5fe00,0.0,0.0,0.0,0.0,0.0,0.0
2026-05-22 17:15:01.800380,1779484501.800380,204209,-444134,163107407,-78697,-488062,53687,61,06e5fe00,0.0,0.0,0.0,0.0,0.0,0.0
2026-05-22 17:15:01.801873,1779484501.801873,204209,-444134,163107407,-78697,-488062,53687,61,06e5fe00,0.0,0.0,0.0,0.0,0.0,0.0
2026-05-22 17:15:01.803350,1779484501.803350,405191,-308338,162636546,108713,234823,70555,61,06e5fe00,0.0,0.0,0.0,0.0,0.0,0.0
2026-05-22 17:15:01.804958,1779484501.804958,405191,-308338,162636546,108713,234823,70555,61,06e5fe00,0.0,0.0,0.0,0.0,0.0,0.0
2026-05-22 17:15:01.806306,1779484501.806306,-95748,-239065,165678977,127237,167251,58134,61,06e5fe00,0.0,0.0,0.0,0.0,0.0,0.0
2026-05-22 17:15:01.807983,1779484501.807983,-95748,-239065,165678977,127237,167251,58134,61,06e5fe00,0.0,0.0,0.0,0.0,0.0,0.0
2026-05-22 17:15:01.809110,1779484501.809110,181297,-78137,165476088,-107341,-41906,49428,61,06e5fe00,0.0,0.0,0.0,0.0,0.0,0.0
2026-05-22 17:15:01.810681,1779484501.810681,181297,-78137,165476088,-107341,-41906,49428,61,06e5fe00,0.0,0.0,0.0,0.0,0.0,0.0
2026-05-22 17:15:01.811998,1779484501.811998,494202,-306493,162539215,-94412,-381965,36186,61,06e5fe00,0.0,0.0,0.0,0.0,0.0,0.0
2026-05-22 17:15:01.813503,1779484501.813503,494202,-306493,162539215,-94412,-381965,36186,61,06e5fe00,0.0,0.0,0.0,0.0,0.0,0.0
2026-05-22 17:15:01.814723,1779484501.814723,190999,-122714,162875556,83702,393637,78015,61,06e5fe00,0.0,0.0,0.0,0.0,0.0,0.0
2026-05-22 17:15:01.816182,1779484501.816182,190999,-122714,162875556,83702,393637,78015,61,06e5fe00,0.0,0.0,0.0,0.0,0.0,0.0
2026-05-22 17:15:01.817383,1779484501.817383,-716807,-185485,166415787,84471,263779,71146,61,06e5fe00,0.0,0.0,0.0,0.0,0.0,0.0
2026-05-22 17:15:01.818977,1779484501.818977,-716807,-185485,166415787,84471,263779,71146,61,06e5fe00,0.0,0.0,0.0,0.0,0.0,0.0
2026-05-22 17:15:01.820197,1779484501.820197,-420415,-267402,165800314,-120639,-230005,60946,61,06e5fe00,0.0,0.0,0.0,0.0,0.0,0.0
2026-05-22 17:15:01.822110,1779484501.822110,-420415,-267402,165800314,-120639,-230005,60946,61,06e5fe00,0.0,0.0,0.0,0.0,0.0,0.0
2026-05-22 17:15:01.827716,1779484501.827716,453174,-367204,162449444,-54097,-446031,32944,61,06e5fe00,0.0,0.0,0.0,0.0,0.0,0.0
2026-05-22 17:15:01.835819,1779484501.835819,453174,-367204,162449444,-54097,-446031,32944,61,06e5fe00,0.0,0.0,0.0,0.0,0.0,0.0
2026-05-22 17:15:01.839864,1779484501.839864,532102,-222389,161911498,57188,-105525,43471,61,06e5fe00,0.0,0.0,0.0,0.0,0.0,0.0
2026-05-22 17:15:01.841627,1779484501.841627,532102,-222389,161911498,57188,-105525,43471,61,06e5fe00,0.0,0.0,0.0,0.0,0.0,0.0
2026-05-22 17:15:01.958486,1779484501.958486,-51117,-159324,164688289,150991,377871,44219,61,06e5fe00,0.0,0.0,0.0,0.0,0.0,0.0
2026-05-22 17:15:01.959778,1779484501.959778,-51117,-159324,164688289,150991,377871,44219,61,06e5fe00,0.0,0.0,0.0,0.0,0.0,0.0
2026-05-22 17:15:01.962654,1779484501.962654,-587432,-140959,166800566,-13452,105192,34449,61,06e5fe00,0.0,0.0,0.0,0.0,0.0,0.0
2026-05-22 17:15:01.963951,1779484501.963951,-587432,-140959,166800566,-13452,105192,34449,61,06e5fe00,0.0,0.0,0.0,0.0,0.0,0.0
2026-05-22 17:15:01.964919,1779484501.964919,429054,-531335,162442690,-75050,-374231,57304,61,06e5fe00,0.0,0.0,0.0,0.0,0.0,0.0
2026-05-22 17:15:01.966066,1779484501.966066,429054,-531335,162442690,-75050,-374231,57304,61,06e5fe00,0.0,0.0,0.0,0.0,0.0,0.0
2026-05-22 17:15:01.967885,1779484501.967885,191510,-439103,162671563,104523,242954,66174,61,06e5fe00,0.0,0.0,0.0,0.0,0.0,0.0
2026-05-22 17:15:01.969773,1779484501.969773,191510,-439103,162671563,104523,242954,66174,61,06e5fe00,0.0,0.0,0.0,0.0,0.0,0.0
2026-05-22 17:15:01.970921,1779484501.970921,-4632,-188743,166175454,147564,243947,59290,61,06e5fe00,0.0,0.0,0.0,0.0,0.0,0.0
2026-05-22 17:15:01.972208,1779484501.972208,-4632,-188743,166175454,147564,243947,59290,61,06e5fe00,0.0,0.0,0.0,0.0,0.0,0.0
2026-05-22 17:15:01.974662,1779484501.974662,-309262,-238329,165497557,-110082,-309406,48068,61,06e5fe00,0.0,0.0,0.0,0.0,0.0,0.0
2026-05-22 17:15:01.975922,1779484501.975922,-309262,-238329,165497557,-110082,-309406,48068,61,06e5fe00,0.0,0.0,0.0,0.0,0.0,0.0
2026-05-22 17:15:01.976904,1779484501.976904,356647,-270823,162774781,2571,-379618,81606,61,06e5fe00,0.0,0.0,0.0,0.0,0.0,0.0
2026-05-22 17:15:01.978159,1779484501.978159,356647,-270823,162774781,2571,-379618,81606,61,06e5fe00,0.0,0.0,0.0,0.0,0.0,0.0
2026-05-22 17:15:01.980744,1779484501.980744,-182673,-209493,162921511,95435,276440,94812,61,06e5fe00,0.0,0.0,0.0,0.0,0.0,0.0
2026-05-22 17:15:01.982953,1779484501.982953,-182673,-209493,162921511,95435,276440,94812,61,06e5fe00,0.0,0.0,0.0,0.0,0.0,0.0
2026-05-22 17:15:01.985968,1779484501.985968,-253302,-219343,165866032,126591,171045,86535,61,06e5fe00,0.0,0.0,0.0,0.0,0.0,0.0
2026-05-22 17:15:01.989302,1779484501.989302,-253302,-219343,165866032,126591,171045,86535,61,06e5fe00,0.0,0.0,0.0,0.0,0.0,0.0
2026-05-22 17:15:01.991150,1779484501.991150,-420398,-301133,165117930,-99646,-267254,71869,61,06e5fe00,0.0,0.0,0.0,0.0,0.0,0.0
2026-05-22 17:15:01.992333,1779484501.992333,-420398,-301133,165117930,-99646,-267254,71869,61,06e5fe00,0.0,0.0,0.0,0.0,0.0,0.0
2026-05-22 17:15:01.993339,1779484501.993339,186642,-345431,163385796,15075,-336651,68477,61,06e5fe00,0.0,0.0,0.0,0.0,0.0,0.0
2026-05-22 17:15:01.994684,1779484501.994684,186642,-345431,163385796,15075,-336651,68477,61,06e5fe00,0.0,0.0,0.0,0.0,0.0,0.0
2026-05-22 17:15:01.996545,1779484501.996545,-153352,-206462,163613753,68053,125625,69094,61,06e4fe00,0.0,0.0,0.0,0.0,0.0,0.0
2026-05-22 17:15:01.998186,1779484501.998186,-153352,-206462,163613753,68053,125625,69094,61,06e4fe00,0.0,0.0,0.0,0.0,0.0,0.0
2026-05-22 17:15:01.999239,1779484501.999239,-64226,-110501,165389635,122468,136826,66067,61,06e4fe00,0.0,0.0,0.0,0.0,0.0,0.0
2026-05-22 17:15:02.000941,1779484502.000941,-64226,-110501,165389635,122468,136826,66067,61,06e4fe00,0.0,0.0,0.0,0.0,0.0,0.0
2026-05-22 17:15:02.002843,1779484502.002843,66160,-269726,164489917,-61530,-297184,78437,61,06e4fe00,0.0,0.0,0.0,0.0,0.0,0.0
2026-05-22 17:15:02.004118,1779484502.004118,66160,-269726,164489917,-61530,-297184,78437,61,06e4fe00,0.0,0.0,0.0,0.0,0.0,0.0
2026-05-22 17:15:02.005510,1779484502.005510,472284,-311196,163323051,44878,-51827,100444,61,06e4fe00,0.0,0.0,0.0,0.0,0.0,0.0
2026-05-22 17:15:02.008765,1779484502.008765,472284,-311196,163323051,44878,-51827,100444,61,06e4fe00,0.0,0.0,0.0,0.0,0.0,0.0
2026-05-22 17:15:02.011296,1779484502.011296,15371,-308247,164263574,66007,173456,101830,61,06e4fe00,0.0,0.0,0.0,0.0,0.0,0.0
2026-05-22 17:15:02.014876,1779484502.014876,15371,-308247,164263574,66007,173456,101830,61,06e4fe00,0.0,0.0,0.0,0.0,0.0,0.0
2026-05-22 17:15:02.017350,1779484502.017350,74611,-288612,165272322,143664,272180,94972,61,06e4fe00,0.0,0.0,0.0,0.0,0.0,0.0
2026-05-22 17:15:02.020878,1779484502.020878,74611,-288612,165272322,143664,272180,94972,61,06e4fe00,0.0,0.0,0.0,0.0,0.0,0.0
2026-05-22 17:15:02.024295,1779484502.024295,109944,-427330,163966642,-18905,-260206,71014,61,06e4fe00,0.0,0.0,0.0,0.0,0.0,0.0
2026-05-22 17:15:02.026140,1779484502.026140,109944,-427330,163966642,-18905,-260206,71014,61,06e4fe00,0.0,0.0,0.0,0.0,0.0,0.0
2026-05-22 17:15:02.027781,1779484502.027781,103295,-183099,163138368,75432,209254,82510,61,06e4fe00,0.0,0.0,0.0,0.0,0.0,0.0
2026-05-22 17:15:02.031917,1779484502.031917,103295,-183099,163138368,75432,209254,82510,61,06e4fe00,0.0,0.0,0.0,0.0,0.0,0.0
2026-05-22 17:15:02.033508,1779484502.033508,-378878,-41330,164628717,121909,158661,76437,61,06e4fe00,0.0,0.0,0.0,0.0,0.0,0.0
2026-05-22 17:15:02.035094,1779484502.035094,-378878,-41330,164628717,121909,158661,76437,61,06e4fe00,0.0,0.0,0.0,0.0,0.0,0.0
2026-05-22 17:15:02.036757,1779484502.036757,-679998,-93288,165098976,-25863,178916,73400,61,06e4fe00,0.0,0.0,0.0,0.0,0.0,0.0
2026-05-22 17:15:02.038546,1779484502.038546,-679998,-93288,165098976,-25863,178916,73400,61,06e4fe00,0.0,0.0,0.0,0.0,0.0,0.0
2026-05-22 17:15:02.040019,1779484502.040019,-418181,-103645,164112078,-30929,-326815,71976,61,06e4fe00,0.0,0.0,0.0,0.0,0.0,0.0
2026-05-22 17:15:02.042231,1779484502.042231,-418181,-103645,164112078,-30929,-326815,71976,61,06e4fe00,0.0,0.0,0.0,0.0,0.0,0.0
2026-05-22 17:15:02.043614,1779484502.043614,-269983,-34363,163636059,-22028,26718,72546,61,06e4fe00,0.0,0.0,0.0,0.0,0.0,0.0
2026-05-22 17:15:02.045134,1779484502.045134,-269983,-34363,163636059,-22028,26718,72546,61,06e4fe00,0.0,0.0,0.0,0.0,0.0,0.0
2026-05-22 17:15:02.046322,1779484502.046322,-170357,-14078,164993191,101121,16980,61275,61,06e4fe00,0.0,0.0,0.0,0.0,0.0,0.0
2026-05-22 17:15:02.047933,1779484502.047933,-170357,-14078,164993191,101121,16980,61275,61,06e4fe00,0.0,0.0,0.0,0.0,0.0,0.0
2026-05-22 17:15:02.049462,1779484502.049462,-46688,-145085,164673694,-71359,-7038,84835,61,06e4fe00,0.0,0.0,0.0,0.0,0.0,0.0
2026-05-22 17:15:02.051660,1779484502.051660,-46688,-145085,164673694,-71359,-7038,84835,61,06e4fe00,0.0,0.0,0.0,0.0,0.0,0.0
2026-05-22 17:15:02.053615,1779484502.053615,361741,-226658,163609422,9696,-272968,88771,61,06e4fe00,0.0,0.0,0.0,0.0,0.0,0.0
2026-05-22 17:15:02.056418,1779484502.056418,361741,-226658,163609422,9696,-272968,88771,61,06e4fe00,0.0,0.0,0.0,0.0,0.0,0.0
2026-05-22 17:15:02.058005,1779484502.058005,521,-218799,163843513,31573,168764,96352,61,06e4fe00,0.0,0.0,0.0,0.0,0.0,0.0
2026-05-22 17:15:02.059727,1779484502.059727,521,-218799,163843513,31573,168764,96352,61,06e4fe00,0.0,0.0,0.0,0.0,0.0,0.0
2026-05-22 17:15:02.060891,1779484502.060891,-42414,-254074,165584798,117322,48922,60598,61,06e4fe00,0.0,0.0,0.0,0.0,0.0,0.0
2026-05-22 17:15:02.062923,1779484502.062923,-42414,-254074,165584798,117322,48922,60598,61,06e4fe00,0.0,0.0,0.0,0.0,0.0,0.0
2026-05-22 17:15:02.064285,1779484502.064285,15939,-154818,164452385,-48301,-126404,50555,61,06e4fe00,0.0,0.0,0.0,0.0,0.0,0.0
2026-05-22 17:15:02.067903,1779484502.067903,15939,-154818,164452385,-48301,-126404,50555,61,06e4fe00,0.0,0.0,0.0,0.0,0.0,0.0
2026-05-22 17:15:02.069136,1779484502.069136,420229,-192715,163077645,62450,-173595,59771,61,06e4fe00,0.0,0.0,0.0,0.0,0.0,0.0
2026-05-22 17:15:02.070823,1779484502.070823,420229,-192715,163077645,62450,-173595,59771,61,06e4fe00,0.0,0.0,0.0,0.0,0.0,0.0
2026-05-22 17:15:02.072156,1779484502.072156,-132906,-113591,163775918,67418,218212,80033,61,06e4fe00,0.0,0.0,0.0,0.0,0.0,0.0
2026-05-22 17:15:02.073743,1779484502.073743,-132906,-113591,163775918,67418,218212,80033,61,06e4fe00,0.0,0.0,0.0,0.0,0.0,0.0
2026-05-22 17:15:02.075099,1779484502.075099,-432234,-129930,165492828,27932,157855,66792,61,06e4fe00,0.0,0.0,0.0,0.0,0.0,0.0
2026-05-22 17:15:02.076408,1779484502.076408,-432234,-129930,165492828,27932,157855,66792,61,06e4fe00,0.0,0.0,0.0,0.0,0.0,0.0
2026-05-22 17:15:02.077591,1779484502.077591,-636046,-143514,164455607,-97728,-189694,53220,61,06e4fe00,0.0,0.0,0.0,0.0,0.0,0.0
2026-05-22 17:15:02.079006,1779484502.079006,-636046,-143514,164455607,-97728,-189694,53220,61,06e4fe00,0.0,0.0,0.0,0.0,0.0,0.0
2026-05-22 17:15:02.079958,1779484502.079958,-162355,-134026,163514020,-18133,-166555,73880,61,06e4fe00,0.0,0.0,0.0,0.0,0.0,0.0
2026-05-22 17:15:02.081331,1779484502.081331,-162355,-134026,163514020,-18133,-166555,73880,61,06e4fe00,0.0,0.0,0.0,0.0,0.0,0.0
2026-05-22 17:15:02.082462,1779484502.082462,-440420,-67385,164488522,-18183,-1786,75997,61,06e4fe00,0.0,0.0,0.0,0.0,0.0,0.0
2026-05-22 17:15:02.084014,1779484502.084014,-440420,-67385,164488522,-18183,-1786,75997,61,06e4fe00,0.0,0.0,0.0,0.0,0.0,0.0
2026-05-22 17:15:02.085332,1779484502.085332,-119429,8103,165660192,-20263,-22230,57734,61,06e3fe00,0.0,0.0,0.0,0.0,0.0,0.0
2026-05-22 17:15:02.087200,1779484502.087200,-119429,8103,165660192,-20263,-22230,57734,61,06e3fe00,0.0,0.0,0.0,0.0,0.0,0.0
2026-05-22 17:15:02.088416,1779484502.088416,239651,-312158,163861026,-120805,-435800,36615,61,06e3fe00,0.0,0.0,0.0,0.0,0.0,0.0
2026-05-22 17:15:02.089777,1779484502.089777,239651,-312158,163861026,-120805,-435800,36615,61,06e3fe00,0.0,0.0,0.0,0.0,0.0,0.0
2026-05-22 17:15:02.090812,1779484502.090812,702638,-279111,163217782,-27761,-368312,44822,61,06e4fe00,0.0,0.0,0.0,0.0,0.0,0.0
2026-05-22 17:15:02.092048,1779484502.092048,702638,-279111,163217782,-27761,-368312,44822,61,06e4fe00,0.0,0.0,0.0,0.0,0.0,0.0
2026-05-22 17:15:02.093092,1779484502.093092,37156,-314313,164490216,69358,101675,52221,61,06e3fe00,0.0,0.0,0.0,0.0,0.0,0.0
2026-05-22 17:15:02.096571,1779484502.096571,37156,-314313,164490216,69358,101675,52221,61,06e3fe00,0.0,0.0,0.0,0.0,0.0,0.0
2026-05-22 17:15:02.097829,1779484502.097829,199141,-320305,165598576,96121,75865,47599,61,06e3fe00,0.0,0.0,0.0,0.0,0.0,0.0
2026-05-22 17:15:02.099064,1779484502.099064,199141,-320305,165598576,96121,75865,47599,61,06e3fe00,0.0,0.0,0.0,0.0,0.0,0.0
2026-05-22 17:15:02.099980,1779484502.099980,39642,-322366,163772135,-68258,-345019,43121,61,06e3fe00,0.0,0.0,0.0,0.0,0.0,0.0
2026-05-22 17:15:02.101065,1779484502.101065,39642,-322366,163772135,-68258,-345019,43121,61,06e3fe00,0.0,0.0,0.0,0.0,0.0,0.0
2026-05-22 17:15:02.101913,1779484502.101913,199356,-139328,163149809,67163,136030,99749,61,06e4fe00,0.0,0.0,0.0,0.0,0.0,0.0
2026-05-22 17:15:02.103019,1779484502.103019,199356,-139328,163149809,67163,136030,99749,61,06e4fe00,0.0,0.0,0.0,0.0,0.0,0.0
2026-05-22 17:15:02.103915,1779484502.103915,-446356,-76628,165002219,81778,164942,83198,61,06e4fe00,0.0,0.0,0.0,0.0,0.0,0.0
2026-05-22 17:15:02.105003,1779484502.105003,-446356,-76628,165002219,81778,164942,83198,61,06e4fe00,0.0,0.0,0.0,0.0,0.0,0.0
2026-05-22 17:15:02.105907,1779484502.105907,-301849,-134568,165196450,-53830,39205,68366,61,06e4fe00,0.0,0.0,0.0,0.0,0.0,0.0
2026-05-22 17:15:02.107015,1779484502.107015,-301849,-134568,165196450,-53830,39205,68366,61,06e4fe00,0.0,0.0,0.0,0.0,0.0,0.0
2026-05-22 17:15:02.107914,1779484502.107914,-112915,-268990,163382380,-46297,-312450,44485,61,06e4fe00,0.0,0.0,0.0,0.0,0.0,0.0
2026-05-22 17:15:02.109022,1779484502.109022,-112915,-268990,163382380,-46297,-312450,44485,61,06e4fe00,0.0,0.0,0.0,0.0,0.0,0.0
2026-05-22 17:15:02.113740,1779484502.113740,-8122,-189663,163365413,61977,165633,58814,61,06e4fe00,0.0,0.0,0.0,0.0,0.0,0.0
2026-05-22 17:15:02.114948,1779484502.114948,-8122,-189663,163365413,61977,165633,58814,61,06e4fe00,0.0,0.0,0.0,0.0,0.0,0.0
2026-05-22 17:15:02.124055,1779484502.124055,-366238,-142146,165705906,102413,144983,54103,61,06e4fe00,0.0,0.0,0.0,0.0,0.0,0.0
2026-05-22 17:15:02.125697,1779484502.125697,-366238,-142146,165705906,102413,144983,54103,61,06e4fe00,0.0,0.0,0.0,0.0,0.0,0.0
2026-05-22 17:15:02.133966,1779484502.133966,-110834,-106455,165416547,-56136,-109753,64100,61,06e4fe00,0.0,0.0,0.0,0.0,0.0,0.0
2026-05-22 17:15:02.135206,1779484502.135206,-110834,-106455,165416547,-56136,-109753,64100,61,06e4fe00,0.0,0.0,0.0,0.0,0.0,0.0
2026-05-22 17:15:02.144842,1779484502.144842,697287,-406165,162979717,-27530,-358812,74857,61,06e4fe00,0.0,0.0,0.0,0.0,0.0,0.0
2026-05-22 17:15:02.147995,1779484502.147995,697287,-406165,162979717,-27530,-358812,74857,61,06e4fe00,0.0,0.0,0.0,0.0,0.0,0.0
2026-05-22 17:15:02.153911,1779484502.153911,484704,-350822,162710563,56329,244852,93241,61,06e4fe00,0.0,0.0,0.0,0.0,0.0,0.0
2026-05-22 17:15:02.155854,1779484502.155854,484704,-350822,162710563,56329,244852,93241,61,06e4fe00,0.0,0.0,0.0,0.0,0.0,0.0
2026-05-22 17:15:02.164599,1779484502.164599,86406,-281367,165431338,93696,271059,63524,61,06e4fe00,0.0,0.0,0.0,0.0,0.0,0.0
2026-05-22 17:15:02.166215,1779484502.166215,86406,-281367,165431338,93696,271059,63524,61,06e4fe00,0.0,0.0,0.0,0.0,0.0,0.0
2026-05-22 17:15:02.174699,1779484502.174699,-423445,-245503,165288437,-42198,-38855,30654,61,06e4fe00,0.0,0.0,0.0,0.0,0.0,0.0
2026-05-22 17:15:02.176665,1779484502.176665,-423445,-245503,165288437,-42198,-38855,30654,61,06e4fe00,0.0,0.0,0.0,0.0,0.0,0.0
2026-05-22 17:15:02.183708,1779484502.183708,-78593,-239786,163516416,-14591,-287651,20282,61,06e4fe00,0.0,0.0,0.0,0.0,0.0,0.0
2026-05-22 17:15:02.185554,1779484502.185554,-78593,-239786,163516416,-14591,-287651,20282,61,06e4fe00,0.0,0.0,0.0,0.0,0.0,0.0
2026-05-22 17:15:02.193852,1779484502.193852,-395004,-124606,163406955,105347,149299,45321,61,06e4fe00,0.0,0.0,0.0,0.0,0.0,0.0
2026-05-22 17:15:02.195159,1779484502.195159,-395004,-124606,163406955,105347,149299,45321,61,06e4fe00,0.0,0.0,0.0,0.0,0.0,0.0
2026-05-22 17:15:02.203884,1779484502.203884,-319522,-157133,165287348,105049,126552,37774,61,06e4fe00,0.0,0.0,0.0,0.0,0.0,0.0
2026-05-22 17:15:02.205003,1779484502.205003,-319522,-157133,165287348,105049,126552,37774,61,06e4fe00,0.0,0.0,0.0,0.0,0.0,0.0
2026-05-22 17:15:02.214905,1779484502.214905,-460335,-409122,164706651,-3904,-160964,55945,61,06e3fe00,0.0,0.0,0.0,0.0,0.0,0.0
2026-05-22 17:15:02.216116,1779484502.216116,-460335,-409122,164706651,-3904,-160964,55945,61,06e3fe00,0.0,0.0,0.0,0.0,0.0,0.0
2026-05-22 17:15:02.224458,1779484502.224458,-807,-337362,163622300,64726,-263207,68496,61,06e3fe00,0.0,0.0,0.0,0.0,0.0,0.0
2026-05-22 17:15:02.226296,1779484502.226296,-807,-337362,163622300,64726,-263207,68496,61,06e3fe00,0.0,0.0,0.0,0.0,0.0,0.0
2026-05-22 17:15:02.234182,1779484502.234182,-539780,-217943,164360599,82307,91369,74274,61,06e3fe00,0.0,0.0,0.0,0.0,0.0,0.0
2026-05-22 17:15:02.235426,1779484502.235426,-539780,-217943,164360599,82307,91369,74274,61,06e3fe00,0.0,0.0,0.0,0.0,0.0,0.0
2026-05-22 17:15:02.244164,1779484502.244164,-104830,-101667,165717785,74249,-44196,36853,61,06e3fe00,0.0,0.0,0.0,0.0,0.0,0.0
2026-05-22 17:15:02.246787,1779484502.246787,-104830,-101667,165717785,74249,-44196,36853,61,06e3fe00,0.0,0.0,0.0,0.0,0.0,0.0
2026-05-22 17:15:02.253765,1779484502.253765,328524,-226080,163985340,-84406,-358584,26500,61,06e3fe00,0.0,0.0,0.0,0.0,0.0,0.0
2026-05-22 17:15:02.254828,1779484502.254828,328524,-226080,163985340,-84406,-358584,26500,61,06e3fe00,0.0,0.0,0.0,0.0,0.0,0.0
2026-05-22 17:15:02.263962,1779484502.263962,917599,-169698,162822303,56198,-130615,64276,61,06e3fe00,0.0,0.0,0.0,0.0,0.0,0.0
2026-05-22 17:15:02.266238,1779484502.266238,917599,-169698,162822303,56198,-130615,64276,61,06e3fe00,0.0,0.0,0.0,0.0,0.0,0.0
2026-05-22 17:15:02.274773,1779484502.274773,-12492,-186957,164222667,70501,206605,67045,61,06e3fe00,0.0,0.0,0.0,0.0,0.0,0.0
2026-05-22 17:15:02.277798,1779484502.277798,-12492,-186957,164222667,70501,206605,67045,61,06e3fe00,0.0,0.0,0.0,0.0,0.0,0.0
2026-05-22 17:15:02.284706,1779484502.284706,-305370,-326653,165862282,16343,165154,75425,61,06e3fe00,0.0,0.0,0.0,0.0,0.0,0.0
2026-05-22 17:15:02.287268,1779484502.287268,-305370,-326653,165862282,16343,165154,75425,61,06e3fe00,0.0,0.0,0.0,0.0,0.0,0.0
2026-05-22 17:15:02.295542,1779484502.295542,-320989,-518739,163854806,-119006,-343422,61413,61,06e3fe00,0.0,0.0,0.0,0.0,0.0,0.0
2026-05-22 17:15:02.298107,1779484502.298107,-320989,-518739,163854806,-119006,-343422,61413,61,06e3fe00,0.0,0.0,0.0,0.0,0.0,0.0
2026-05-22 17:15:02.305005,1779484502.305005,296959,-203373,162756573,41492,33906,78064,61,06e3fe00,0.0,0.0,0.0,0.0,0.0,0.0
2026-05-22 17:15:02.308732,1779484502.308732,296959,-203373,162756573,41492,33906,78064,61,06e3fe00,0.0,0.0,0.0,0.0,0.0,0.0
2026-05-22 17:15:02.315272,1779484502.315272,-313691,-10894,164526769,111667,183290,85005,61,06e3fe00,0.0,0.0,0.0,0.0,0.0,0.0
2026-05-22 17:15:02.318265,1779484502.318265,-313691,-10894,164526769,111667,183290,85005,61,06e3fe00,0.0,0.0,0.0,0.0,0.0,0.0
2026-05-22 17:15:02.325051,1779484502.325051,-287013,45730,165841544,-25414,104206,89721,61,06e3fe00,0.0,0.0,0.0,0.0,0.0,0.0
2026-05-22 17:15:02.329138,1779484502.329138,-287013,45730,165841544,-25414,104206,89721,61,06e3fe00,0.0,0.0,0.0,0.0,0.0,0.0
2026-05-22 17:15:02.334437,1779484502.334437,-359562,-176292,163829753,-124183,-412949,72548,61,06e3fe00,0.0,0.0,0.0,0.0,0.0,0.0
2026-05-22 17:15:02.337154,1779484502.337154,-359562,-176292,163829753,-124183,-412949,72548,61,06e3fe00,0.0,0.0,0.0,0.0,0.0,0.0
2026-05-22 17:15:02.345101,1779484502.345101,62249,-268517,162904073,12100,38083,100005,61,06e3fe00,0.0,0.0,0.0,0.0,0.0,0.0
2026-05-22 17:15:02.348594,1779484502.348594,62249,-268517,162904073,12100,38083,100005,61,06e3fe00,0.0,0.0,0.0,0.0,0.0,0.0
2026-05-22 17:15:02.354541,1779484502.354541,-289042,-468206,164626406,47849,92492,108541,61,06e3fe00,0.0,0.0,0.0,0.0,0.0,0.0
2026-05-22 17:15:02.356267,1779484502.356267,-289042,-468206,164626406,47849,92492,108541,61,06e3fe00,0.0,0.0,0.0,0.0,0.0,0.0
2026-05-22 17:15:02.365000,1779484502.365000,119754,-359075,165443597,-52321,29009,130689,61,06e3fe00,0.0,0.0,0.0,0.0,0.0,0.0
2026-05-22 17:15:02.367195,1779484502.367195,119754,-359075,165443597,-52321,29009,130689,61,06e3fe00,0.0,0.0,0.0,0.0,0.0,0.0
2026-05-22 17:15:02.374392,1779484502.374392,517088,-533049,163564753,-79117,-424785,139215,61,06e3fe00,0.0,0.0,0.0,0.0,0.0,0.0
2026-05-22 17:15:02.376659,1779484502.376659,517088,-533049,163564753,-79117,-424785,139215,61,06e3fe00,0.0,0.0,0.0,0.0,0.0,0.0
2026-05-22 17:15:02.384932,1779484502.384932,552331,-424163,163161852,97010,108887,136158,61,06e3fe00,0.0,0.0,0.0,0.0,0.0,0.0
2026-05-22 17:15:02.387194,1779484502.387194,552331,-424163,163161852,97010,108887,136158,61,06e3fe00,0.0,0.0,0.0,0.0,0.0,0.0
2026-05-22 17:15:02.395020,1779484502.395020,-146294,-522671,165465467,160518,193297,111710,61,06e3fe00,0.0,0.0,0.0,0.0,0.0,0.0
2026-05-22 17:15:02.398938,1779484502.398938,-146294,-522671,165465467,160518,193297,111710,61,06e3fe00,0.0,0.0,0.0,0.0,0.0,0.0
2026-05-22 17:15:02.405561,1779484502.405561,-232246,-566956,165577545,80095,-4738,77714,61,06e3fe00,0.0,0.0,0.0,0.0,0.0,0.0
2026-05-22 17:15:02.408026,1779484502.408026,-232246,-566956,165577545,80095,-4738,77714,61,06e3fe00,0.0,0.0,0.0,0.0,0.0,0.0
2026-05-22 17:15:02.415524,1779484502.415524,194487,-717674,163431063,101335,-248530,66629,61,06e3fe00,0.0,0.0,0.0,0.0,0.0,0.0
2026-05-22 17:15:02.418918,1779484502.418918,194487,-717674,163431063,101335,-248530,66629,61,06e3fe00,0.0,0.0,0.0,0.0,0.0,0.0
2026-05-22 17:15:02.425197,1779484502.425197,-18785,-457003,163435648,276093,265264,74365,61,06e3fe00,0.0,0.0,0.0,0.0,0.0,0.0
2026-05-22 17:15:02.426769,1779484502.426769,-18785,-457003,163435648,276093,265264,74365,61,06e3fe00,0.0,0.0,0.0,0.0,0.0,0.0
2026-05-22 17:15:02.433949,1779484502.433949,-531354,-209697,166135694,340099,292579,79118,61,06e3fe00,0.0,0.0,0.0,0.0,0.0,0.0
2026-05-22 17:15:02.435549,1779484502.435549,-531354,-209697,166135694,340099,292579,79118,61,06e3fe00,0.0,0.0,0.0,0.0,0.0,0.0
2026-05-22 17:15:02.445835,1779484502.445835,-732122,-271818,165893931,174974,-60694,81807,61,06e3fe00,0.0,0.0,0.0,0.0,0.0,0.0
2026-05-22 17:15:02.451643,1779484502.451643,-732122,-271818,165893931,174974,-60694,81807,61,06e3fe00,0.0,0.0,0.0,0.0,0.0,0.0
2026-05-22 17:15:02.453802,1779484502.453802,-6114,-233464,163524874,177359,-325683,90939,61,06e2fe00,0.0,0.0,0.0,0.0,0.0,0.0
2026-05-22 17:15:02.455661,1779484502.455661,-6114,-233464,163524874,177359,-325683,90939,61,06e2fe00,0.0,0.0,0.0,0.0,0.0,0.0
2026-05-22 17:15:02.463750,1779484502.463750,-14356,-119504,163186377,219868,202111,112467,61,06e2fe00,0.0,0.0,0.0,0.0,0.0,0.0
2026-05-22 17:15:02.465069,1779484502.465069,-14356,-119504,163186377,219868,202111,112467,61,06e2fe00,0.0,0.0,0.0,0.0,0.0,0.0
2026-05-22 17:15:02.473677,1779484502.473677,-134009,68555,165578831,225034,212708,92169,61,06e2fe00,0.0,0.0,0.0,0.0,0.0,0.0
2026-05-22 17:15:02.474885,1779484502.474885,-134009,68555,165578831,225034,212708,92169,61,06e2fe00,0.0,0.0,0.0,0.0,0.0,0.0
2026-05-22 17:15:02.483461,1779484502.483461,-226451,123897,165840139,90643,142489,109234,61,06e2fe00,0.0,0.0,0.0,0.0,0.0,0.0
2026-05-22 17:15:02.484486,1779484502.484486,-226451,123897,165840139,90643,142489,109234,61,06e2fe00,0.0,0.0,0.0,0.0,0.0,0.0
2026-05-22 17:15:02.493668,1779484502.493668,322898,113458,163151462,-46181,-274914,81044,61,06e3fe00,0.0,0.0,0.0,0.0,0.0,0.0
2026-05-22 17:15:02.494594,1779484502.494594,322898,113458,163151462,-46181,-274914,81044,61,06e3fe00,0.0,0.0,0.0,0.0,0.0,0.0
2026-05-22 17:15:02.503743,1779484502.503743,147348,186602,162860012,2565,242921,77307,61,06e2fe00,0.0,0.0,0.0,0.0,0.0,0.0
2026-05-22 17:15:02.504660,1779484502.504660,147348,186602,162860012,2565,242921,77307,61,06e2fe00,0.0,0.0,0.0,0.0,0.0,0.0
2026-05-22 17:15:02.515512,1779484502.515512,-960,179920,165043069,29887,250926,58794,61,06e2fe00,0.0,0.0,0.0,0.0,0.0,0.0
2026-05-22 17:15:02.517014,1779484502.517014,-960,179920,165043069,29887,250926,58794,61,06e2fe00,0.0,0.0,0.0,0.0,0.0,0.0
2026-05-22 17:15:02.523826,1779484502.523826,-253956,33315,164549210,-194328,-160111,65893,61,06e2fe00,0.0,0.0,0.0,0.0,0.0,0.0
2026-05-22 17:15:02.525226,1779484502.525226,-253956,33315,164549210,-194328,-160111,65893,61,06e2fe00,0.0,0.0,0.0,0.0,0.0,0.0
2026-05-22 17:15:02.533750,1779484502.533750,60649,4995,163043048,-132808,-165718,84545,61,06e2fe00,0.0,0.0,0.0,0.0,0.0,0.0
2026-05-22 17:15:02.535829,1779484502.535829,60649,4995,163043048,-132808,-165718,84545,61,06e2fe00,0.0,0.0,0.0,0.0,0.0,0.0
2026-05-22 17:15:02.544272,1779484502.544272,-316587,126813,163271658,-77841,115312,69342,61,06e2fe00,0.0,0.0,0.0,0.0,0.0,0.0
2026-05-22 17:15:02.547825,1779484502.547825,-316587,126813,163271658,-77841,115312,69342,61,06e2fe00,0.0,0.0,0.0,0.0,0.0,0.0
2026-05-22 17:15:02.554056,1779484502.554056,-55358,290070,164787090,-22113,107651,21690,61,06e2fe00,0.0,0.0,0.0,0.0,0.0,0.0
2026-05-22 17:15:02.555193,1779484502.555193,-55358,290070,164787090,-22113,107651,21690,61,06e2fe00,0.0,0.0,0.0,0.0,0.0,0.0
2026-05-22 17:15:02.563724,1779484502.563724,-143058,234096,164046455,-132766,-232348,-38533,61,06e2fe00,0.0,0.0,0.0,0.0,0.0,0.0
2026-05-22 17:15:02.565207,1779484502.565207,-143058,234096,164046455,-132766,-232348,-38533,61,06e2fe00,0.0,0.0,0.0,0.0,0.0,0.0
2026-05-22 17:15:02.573870,1779484502.573870,192332,222489,163381854,-63998,-168162,-52584,61,06e2fe00,0.0,0.0,0.0,0.0,0.0,0.0
2026-05-22 17:15:02.575115,1779484502.575115,192332,222489,163381854,-63998,-168162,-52584,61,06e2fe00,0.0,0.0,0.0,0.0,0.0,0.0
2026-05-22 17:15:02.583700,1779484502.583700,-389573,84225,163936878,-61182,57478,-50579,61,06e2fe00,0.0,0.0,0.0,0.0,0.0,0.0
2026-05-22 17:15:02.585078,1779484502.585078,-389573,84225,163936878,-61182,57478,-50579,61,06e2fe00,0.0,0.0,0.0,0.0,0.0,0.0
2026-05-22 17:15:02.594670,1779484502.594670,-126801,164250,164930399,-53228,14629,-50867,61,06e2fe00,0.0,0.0,0.0,0.0,0.0,0.0
2026-05-22 17:15:02.596039,1779484502.596039,-126801,164250,164930399,-53228,14629,-50867,61,06e2fe00,0.0,0.0,0.0,0.0,0.0,0.0
2026-05-22 17:15:02.603876,1779484502.603876,110807,13724,163573871,-98602,-338178,-59134,61,06e2fe00,0.0,0.0,0.0,0.0,0.0,0.0
2026-05-22 17:15:02.605536,1779484502.605536,110807,13724,163573871,-98602,-338178,-59134,61,06e2fe00,0.0,0.0,0.0,0.0,0.0,0.0
2026-05-22 17:15:02.613562,1779484502.613562,431452,342585,163346942,-9312,-39336,-37199,61,06e2fe00,0.0,0.0,0.0,0.0,0.0,0.0
2026-05-22 17:15:02.614611,1779484502.614611,431452,342585,163346942,-9312,-39336,-37199,61,06e2fe00,0.0,0.0,0.0,0.0,0.0,0.0
2026-05-22 17:15:02.623644,1779484502.623644,-186560,368910,164958028,13744,65828,-61499,61,06e2fe00,0.0,0.0,0.0,0.0,0.0,0.0
2026-05-22 17:15:02.624812,1779484502.624812,-186560,368910,164958028,13744,65828,-61499,61,06e2fe00,0.0,0.0,0.0,0.0,0.0,0.0
2026-05-22 17:15:02.635380,1779484502.635380,-180220,206261,165418756,-91929,29477,-57659,61,06e2fe00,0.0,0.0,0.0,0.0,0.0,0.0
2026-05-22 17:15:02.637374,1779484502.637374,-180220,206261,165418756,-91929,29477,-57659,61,06e2fe00,0.0,0.0,0.0,0.0,0.0,0.0
2026-05-22 17:15:02.649560,1779484502.649560,98745,-66116,163391047,-193434,-317059,-87689,61,06e2fe00,0.0,0.0,0.0,0.0,0.0,0.0
2026-05-22 17:15:02.656947,1779484502.656947,98745,-66116,163391047,-193434,-317059,-87689,61,06e2fe00,0.0,0.0,0.0,0.0,0.0,0.0
2026-05-22 17:15:02.660072,1779484502.660072,81207,216751,163052177,-113532,192727,-44360,61,06e2fe00,0.0,0.0,0.0,0.0,0.0,0.0
2026-05-22 17:15:02.661302,1779484502.661302,81207,216751,163052177,-113532,192727,-44360,61,06e2fe00,0.0,0.0,0.0,0.0,0.0,0.0
2026-05-22 17:15:02.778202,1779484502.778202,-597651,315110,165694599,-80152,169129,-33638,61,06e2fe00,0.0,0.0,0.0,0.0,0.0,0.0
2026-05-22 17:15:02.779577,1779484502.779577,-597651,315110,165694599,-80152,169129,-33638,61,06e2fe00,0.0,0.0,0.0,0.0,0.0,0.0
2026-05-22 17:15:02.792867,1779484502.792867,-738207,145042,166357128,-310236,-7948,-3865,61,06e2fe00,0.0,0.0,0.0,0.0,0.0,0.0
2026-05-22 17:15:02.794274,1779484502.794274,-738207,145042,166357128,-310236,-7948,-3865,61,06e2fe00,0.0,0.0,0.0,0.0,0.0,0.0
2026-05-22 17:15:02.795370,1779484502.795370,-270870,-106577,163919805,-377532,-473399,1505,61,06e2fe00,0.0,0.0,0.0,0.0,0.0,0.0
2026-05-22 17:15:02.796977,1779484502.796977,-270870,-106577,163919805,-377532,-473399,1505,61,06e2fe00,0.0,0.0,0.0,0.0,0.0,0.0
2026-05-22 17:15:02.798903,1779484502.798903,65519,-203752,162964837,-289944,136798,20933,61,06e2fe00,0.0,0.0,0.0,0.0,0.0,0.0
2026-05-22 17:15:02.801440,1779484502.801440,65519,-203752,162964837,-289944,136798,20933,61,06e2fe00,0.0,0.0,0.0,0.0,0.0,0.0
2026-05-22 17:15:02.804452,1779484502.804452,-354386,-377269,165306447,-213368,130751,47981,61,06e2fe00,0.0,0.0,0.0,0.0,0.0,0.0
2026-05-22 17:15:02.807284,1779484502.807284,-354386,-377269,165306447,-213368,130751,47981,61,06e2fe00,0.0,0.0,0.0,0.0,0.0,0.0
2026-05-22 17:15:02.810014,1779484502.810014,-401795,-462895,166141846,-434171,56449,90613,61,06e2fe00,0.0,0.0,0.0,0.0,0.0,0.0
2026-05-22 17:15:02.812925,1779484502.812925,-401795,-462895,166141846,-434171,56449,90613,61,06e2fe00,0.0,0.0,0.0,0.0,0.0,0.0
2026-05-22 17:15:02.814431,1779484502.814431,-287537,-588124,164274807,-447452,-510602,90564,61,06e2fe00,0.0,0.0,0.0,0.0,0.0,0.0
2026-05-22 17:15:02.816390,1779484502.816390,-287537,-588124,164274807,-447452,-510602,90564,61,06e2fe00,0.0,0.0,0.0,0.0,0.0,0.0
2026-05-22 17:15:02.817807,1779484502.817807,243385,-722106,163164278,-294723,66077,128494,61,06e2fe00,0.0,0.0,0.0,0.0,0.0,0.0
2026-05-22 17:15:02.819223,1779484502.819223,243385,-722106,163164278,-294723,66077,128494,61,06e2fe00,0.0,0.0,0.0,0.0,0.0,0.0
2026-05-22 17:15:02.820426,1779484502.820426,43892,-1070770,164820384,-161399,45152,113606,61,06e2fe00,0.0,0.0,0.0,0.0,0.0,0.0
2026-05-22 17:15:02.823510,1779484502.823510,43892,-1070770,164820384,-161399,45152,113606,61,06e2fe00,0.0,0.0,0.0,0.0,0.0,0.0
2026-05-22 17:15:02.825084,1779484502.825084,390359,-1128502,165045333,-235145,-17300,143871,61,06e2fe00,0.0,0.0,0.0,0.0,0.0,0.0
2026-05-22 17:15:02.826612,1779484502.826612,390359,-1128502,165045333,-235145,-17300,143871,61,06e2fe00,0.0,0.0,0.0,0.0,0.0,0.0
2026-05-22 17:15:02.828292,1779484502.828292,252240,-1158244,163652635,-213310,-288686,145288,61,06e2fe00,0.0,0.0,0.0,0.0,0.0,0.0
2026-05-22 17:15:02.829746,1779484502.829746,252240,-1158244,163652635,-213310,-288686,145288,61,06e2fe00,0.0,0.0,0.0,0.0,0.0,0.0
2026-05-22 17:15:02.831938,1779484502.831938,-65259,-1056581,163616893,-42825,192191,161755,61,06e2fe00,0.0,0.0,0.0,0.0,0.0,0.0
2026-05-22 17:15:02.833366,1779484502.833366,-65259,-1056581,163616893,-42825,192191,161755,61,06e2fe00,0.0,0.0,0.0,0.0,0.0,0.0
2026-05-22 17:15:02.834324,1779484502.834324,-504814,-1115554,165221900,13695,49073,160434,61,06e1fe00,0.0,0.0,0.0,0.0,0.0,0.0
2026-05-22 17:15:02.835800,1779484502.835800,-504814,-1115554,165221900,13695,49073,160434,61,06e1fe00,0.0,0.0,0.0,0.0,0.0,0.0
2026-05-22 17:15:02.838556,1779484502.838556,-291060,-1145911,164671618,-31650,-186979,146587,61,06e1fe00,0.0,0.0,0.0,0.0,0.0,0.0
2026-05-22 17:15:02.839870,1779484502.839870,-291060,-1145911,164671618,-31650,-186979,146587,61,06e1fe00,0.0,0.0,0.0,0.0,0.0,0.0
2026-05-22 17:15:02.840893,1779484502.840893,358588,-1091874,163298880,83908,-345110,135968,61,06e2fe00,0.0,0.0,0.0,0.0,0.0,0.0
2026-05-22 17:15:02.842330,1779484502.842330,358588,-1091874,163298880,83908,-345110,135968,61,06e2fe00,0.0,0.0,0.0,0.0,0.0,0.0
2026-05-22 17:15:02.844418,1779484502.844418,-72773,-1063895,163498877,205739,133454,154514,61,06e2fe00,0.0,0.0,0.0,0.0,0.0,0.0
2026-05-22 17:15:02.845893,1779484502.845893,-72773,-1063895,163498877,205739,133454,154514,61,06e2fe00,0.0,0.0,0.0,0.0,0.0,0.0
2026-05-22 17:15:02.847081,1779484502.847081,-84617,-921662,165484745,292128,62375,141259,61,06e2fe00,0.0,0.0,0.0,0.0,0.0,0.0
2026-05-22 17:15:02.848540,1779484502.848540,-84617,-921662,165484745,292128,62375,141259,61,06e2fe00,0.0,0.0,0.0,0.0,0.0,0.0
2026-05-22 17:15:02.850090,1779484502.850090,-217240,-1102413,164597098,168592,-125077,140818,61,06e2fe00,0.0,0.0,0.0,0.0,0.0,0.0
2026-05-22 17:15:02.851791,1779484502.851791,-217240,-1102413,164597098,168592,-125077,140818,61,06e2fe00,0.0,0.0,0.0,0.0,0.0,0.0
2026-05-22 17:15:02.852958,1779484502.852958,836056,-952893,163354705,290465,-302370,147010,61,06e2fe00,0.0,0.0,0.0,0.0,0.0,0.0
2026-05-22 17:15:02.856429,1779484502.856429,836056,-952893,163354705,290465,-302370,147010,61,06e2fe00,0.0,0.0,0.0,0.0,0.0,0.0
2026-05-22 17:15:02.857789,1779484502.857789,526545,-886282,163528255,316010,243529,143603,61,06e2fe00,0.0,0.0,0.0,0.0,0.0,0.0
2026-05-22 17:15:02.859972,1779484502.859972,526545,-886282,163528255,316010,243529,143603,61,06e2fe00,0.0,0.0,0.0,0.0,0.0,0.0
2026-05-22 17:15:02.863785,1779484502.863785,948045,-700921,165253099,425084,31494,112765,61,06e2fe00,0.0,0.0,0.0,0.0,0.0,0.0
2026-05-22 17:15:02.865097,1779484502.865097,948045,-700921,165253099,425084,31494,112765,61,06e2fe00,0.0,0.0,0.0,0.0,0.0,0.0
2026-05-22 17:15:02.875815,1779484502.875815,335192,-797430,163901355,250730,41436,92580,61,06e1fe00,0.0,0.0,0.0,0.0,0.0,0.0
2026-05-22 17:15:02.879149,1779484502.879149,335192,-797430,163901355,250730,41436,92580,61,06e1fe00,0.0,0.0,0.0,0.0,0.0,0.0
2026-05-22 17:15:02.885080,1779484502.885080,458363,-436463,163222178,443580,-39033,90371,61,06e1fe00,0.0,0.0,0.0,0.0,0.0,0.0
2026-05-22 17:15:02.886969,1779484502.886969,458363,-436463,163222178,443580,-39033,90371,61,06e1fe00,0.0,0.0,0.0,0.0,0.0,0.0
2026-05-22 17:15:02.894044,1779484502.894044,-670182,-273643,164318078,454420,482176,96282,61,06e1fe00,0.0,0.0,0.0,0.0,0.0,0.0
2026-05-22 17:15:02.895702,1779484502.895702,-670182,-273643,164318078,454420,482176,96282,61,06e1fe00,0.0,0.0,0.0,0.0,0.0,0.0
2026-05-22 17:15:02.904533,1779484502.904533,-496204,-165858,165801615,419094,15698,61349,61,06e2fe00,0.0,0.0,0.0,0.0,0.0,0.0
2026-05-22 17:15:02.907930,1779484502.907930,-496204,-165858,165801615,419094,15698,61349,61,06e2fe00,0.0,0.0,0.0,0.0,0.0,0.0
2026-05-22 17:15:02.914539,1779484502.914539,-227845,-210059,163850172,209459,-123321,24961,61,06e2fe00,0.0,0.0,0.0,0.0,0.0,0.0
2026-05-22 17:15:02.916997,1779484502.916997,-227845,-210059,163850172,209459,-123321,24961,61,06e2fe00,0.0,0.0,0.0,0.0,0.0,0.0
2026-05-22 17:15:02.924997,1779484502.924997,271664,-21019,162699921,391127,-931,49393,61,06e2fe00,0.0,0.0,0.0,0.0,0.0,0.0
2026-05-22 17:15:02.928555,1779484502.928555,271664,-21019,162699921,391127,-931,49393,61,06e2fe00,0.0,0.0,0.0,0.0,0.0,0.0
2026-05-22 17:15:02.935099,1779484502.935099,-402105,52189,164480004,395035,417409,54686,61,06e2fe00,0.0,0.0,0.0,0.0,0.0,0.0
2026-05-22 17:15:02.937679,1779484502.937679,-402105,52189,164480004,395035,417409,54686,61,06e2fe00,0.0,0.0,0.0,0.0,0.0,0.0
2026-05-22 17:15:02.946020,1779484502.946020,-441664,241344,165823805,365692,119495,30164,61,06e2fe00,0.0,0.0,0.0,0.0,0.0,0.0
2026-05-22 17:15:02.954004,1779484502.954004,-441664,241344,165823805,365692,119495,30164,61,06e2fe00,0.0,0.0,0.0,0.0,0.0,0.0
2026-05-22 17:15:02.957068,1779484502.957068,-229440,67214,163852996,189843,-218707,-2282,61,06e1fe00,0.0,0.0,0.0,0.0,0.0,0.0
2026-05-22 17:15:02.960475,1779484502.960475,-229440,67214,163852996,189843,-218707,-2282,61,06e1fe00,0.0,0.0,0.0,0.0,0.0,0.0
2026-05-22 17:15:02.966577,1779484502.966577,440723,241874,162455230,340839,-52792,-3296,61,06e1fe00,0.0,0.0,0.0,0.0,0.0,0.0
2026-05-22 17:15:02.969647,1779484502.969647,440723,241874,162455230,340839,-52792,-3296,61,06e1fe00,0.0,0.0,0.0,0.0,0.0,0.0
2026-05-22 17:15:02.978409,1779484502.978409,-240633,441160,164327464,360042,312030,8209,61,06e1fe00,0.0,0.0,0.0,0.0,0.0,0.0
2026-05-22 17:15:02.982697,1779484502.982697,-240633,441160,164327464,360042,312030,8209,61,06e1fe00,0.0,0.0,0.0,0.0,0.0,0.0
2026-05-22 17:15:02.985662,1779484502.985662,-439279,618305,166160540,290605,-12221,11959,61,06e1fe00,0.0,0.0,0.0,0.0,0.0,0.0
2026-05-22 17:15:02.989290,1779484502.989290,-439279,618305,166160540,290605,-12221,11959,61,06e1fe00,0.0,0.0,0.0,0.0,0.0,0.0
2026-05-22 17:15:02.997604,1779484502.997604,-356860,569036,164204460,137048,-357744,-2104,61,06e1fe00,0.0,0.0,0.0,0.0,0.0,0.0
2026-05-22 17:15:03.002143,1779484503.002143,-356860,569036,164204460,137048,-357744,-2104,61,06e1fe00,0.0,0.0,0.0,0.0,0.0,0.0
2026-05-22 17:15:03.007150,1779484503.007150,27825,631930,162799314,246530,24632,-8108,61,06e1fe00,0.0,0.0,0.0,0.0,0.0,0.0
2026-05-22 17:15:03.012718,1779484503.012718,27825,631930,162799314,246530,24632,-8108,61,06e1fe00,0.0,0.0,0.0,0.0,0.0,0.0
2026-05-22 17:15:03.015875,1779484503.015875,-170673,532195,163170566,256677,261270,-1094,61,06e1fe00,0.0,0.0,0.0,0.0,0.0,0.0
2026-05-22 17:15:03.018005,1779484503.018005,-170673,532195,163170566,256677,261270,-1094,61,06e1fe00,0.0,0.0,0.0,0.0,0.0,0.0
2026-05-22 17:15:03.023764,1779484503.023764,-446096,684306,165492485,160530,83648,1424,61,06e1fe00,0.0,0.0,0.0,0.0,0.0,0.0
2026-05-22 17:15:03.025130,1779484503.025130,-446096,684306,165492485,160530,83648,1424,61,06e1fe00,0.0,0.0,0.0,0.0,0.0,0.0
2026-05-22 17:15:03.035485,1779484503.035485,-615885,824574,164837964,35209,-403420,1767,61,06e1fe00,0.0,0.0,0.0,0.0,0.0,0.0
2026-05-22 17:15:03.038656,1779484503.038656,-615885,824574,164837964,35209,-403420,1767,61,06e1fe00,0.0,0.0,0.0,0.0,0.0,0.0
2026-05-22 17:15:03.045096,1779484503.045096,-356503,941502,164155114,82670,-109193,13659,61,06e1fe00,0.0,0.0,0.0,0.0,0.0,0.0
2026-05-22 17:15:03.051102,1779484503.051102,-356503,941502,164155114,82670,-109193,13659,61,06e1fe00,0.0,0.0,0.0,0.0,0.0,0.0
2026-05-22 17:15:03.054361,1779484503.054361,-203823,753417,164730594,66778,-93663,10324,61,06e1fe00,0.0,0.0,0.0,0.0,0.0,0.0
2026-05-22 17:15:03.056645,1779484503.056645,-203823,753417,164730594,66778,-93663,10324,61,06e1fe00,0.0,0.0,0.0,0.0,0.0,0.0
2026-05-22 17:15:03.063742,1779484503.063742,223225,721051,164498143,-44063,-61632,49029,61,06e1fe00,0.0,0.0,0.0,0.0,0.0,0.0
2026-05-22 17:15:03.064935,1779484503.064935,223225,721051,164498143,-44063,-61632,49029,61,06e1fe00,0.0,0.0,0.0,0.0,0.0,0.0
2026-05-22 17:15:03.073843,1779484503.073843,435549,633939,163611759,-123890,-336888,65827,61,06e1fe00,0.0,0.0,0.0,0.0,0.0,0.0
2026-05-22 17:15:03.075017,1779484503.075017,435549,633939,163611759,-123890,-336888,65827,61,06e1fe00,0.0,0.0,0.0,0.0,0.0,0.0
2026-05-22 17:15:03.083974,1779484503.083974,-57345,601842,164175368,-146937,165637,113290,61,06e1fe00,0.0,0.0,0.0,0.0,0.0,0.0
2026-05-22 17:15:03.085563,1779484503.085563,-57345,601842,164175368,-146937,165637,113290,61,06e1fe00,0.0,0.0,0.0,0.0,0.0,0.0
2026-05-22 17:15:03.093892,1779484503.093892,-454498,509073,165726744,-188643,-78715,92235,61,06e1fe00,0.0,0.0,0.0,0.0,0.0,0.0
2026-05-22 17:15:03.095110,1779484503.095110,-454498,509073,165726744,-188643,-78715,92235,61,06e1fe00,0.0,0.0,0.0,0.0,0.0,0.0
2026-05-22 17:15:03.104191,1779484503.104191,-140686,369341,164697305,-367283,-146476,97121,61,06e1fe00,0.0,0.0,0.0,0.0,0.0,0.0
2026-05-22 17:15:03.105717,1779484503.105717,-140686,369341,164697305,-367283,-146476,97121,61,06e1fe00,0.0,0.0,0.0,0.0,0.0,0.0
2026-05-22 17:15:03.114207,1779484503.114207,408063,220469,163063411,-297792,-313373,83476,61,06e1fe00,0.0,0.0,0.0,0.0,0.0,0.0
2026-05-22 17:15:03.117921,1779484503.117921,408063,220469,163063411,-297792,-313373,83476,61,06e1fe00,0.0,0.0,0.0,0.0,0.0,0.0
2026-05-22 17:15:03.124217,1779484503.124217,226367,189044,163758883,-288287,247904,111012,61,06e1fe00,0.0,0.0,0.0,0.0,0.0,0.0
2026-05-22 17:15:03.126820,1779484503.126820,226367,189044,163758883,-288287,247904,111012,61,06e1fe00,0.0,0.0,0.0,0.0,0.0,0.0
2026-05-22 17:15:03.134107,1779484503.134107,-192215,122111,165496407,-331513,41582,94214,61,06e1fe00,0.0,0.0,0.0,0.0,0.0,0.0
2026-05-22 17:15:03.135764,1779484503.135764,-192215,122111,165496407,-331513,41582,94214,61,06e1fe00,0.0,0.0,0.0,0.0,0.0,0.0
2026-05-22 17:15:03.146730,1779484503.146730,-234388,-173606,164497599,-445746,-103361,86932,61,06e1fe00,0.0,0.0,0.0,0.0,0.0,0.0
2026-05-22 17:15:03.150502,1779484503.150502,-234388,-173606,164497599,-445746,-103361,86932,61,06e1fe00,0.0,0.0,0.0,0.0,0.0,0.0
2026-05-22 17:15:03.153893,1779484503.153893,114306,-317961,163110591,-330429,-201616,94038,61,06e1fe00,0.0,0.0,0.0,0.0,0.0,0.0
2026-05-22 17:15:03.155632,1779484503.155632,114306,-317961,163110591,-330429,-201616,94038,61,06e1fe00,0.0,0.0,0.0,0.0,0.0,0.0
2026-05-22 17:15:03.164601,1779484503.164601,-64128,-353693,164066279,-302775,234620,102803,61,06e1fe00,0.0,0.0,0.0,0.0,0.0,0.0
2026-05-22 17:15:03.166494,1779484503.166494,-64128,-353693,164066279,-302775,234620,102803,61,06e1fe00,0.0,0.0,0.0,0.0,0.0,0.0
2026-05-22 17:15:03.173775,1779484503.173775,169138,-355598,165362053,-314300,27134,76385,61,06e1fe00,0.0,0.0,0.0,0.0,0.0,0.0
2026-05-22 17:15:03.175042,1779484503.175042,169138,-355598,165362053,-314300,27134,76385,61,06e1fe00,0.0,0.0,0.0,0.0,0.0,0.0
2026-05-22 17:15:03.183780,1779484503.183780,240393,-740194,163702598,-479887,-199800,82492,61,06e1fe00,0.0,0.0,0.0,0.0,0.0,0.0
2026-05-22 17:15:03.184859,1779484503.184859,240393,-740194,163702598,-479887,-199800,82492,61,06e1fe00,0.0,0.0,0.0,0.0,0.0,0.0
2026-05-22 17:15:03.193734,1779484503.193734,518784,-792978,162600267,-252684,-124521,95394,61,06e1fe00,0.0,0.0,0.0,0.0,0.0,0.0
2026-05-22 17:15:03.194881,1779484503.194881,518784,-792978,162600267,-252684,-124521,95394,61,06e1fe00,0.0,0.0,0.0,0.0,0.0,0.0
2026-05-22 17:15:03.203959,1779484503.203959,-386880,-931339,164413530,-201855,319349,112502,61,06e1fe00,0.0,0.0,0.0,0.0,0.0,0.0
2026-05-22 17:15:03.205969,1779484503.205969,-386880,-931339,164413530,-201855,319349,112502,61,06e1fe00,0.0,0.0,0.0,0.0,0.0,0.0
2026-05-22 17:15:03.215422,1779484503.215422,-276507,-968520,166129895,-188423,-61009,91235,61,06e1fe00,0.0,0.0,0.0,0.0,0.0,0.0
2026-05-22 17:15:03.220474,1779484503.220474,-276507,-968520,166129895,-188423,-61009,91235,61,06e1fe00,0.0,0.0,0.0,0.0,0.0,0.0
2026-05-22 17:15:03.225253,1779484503.225253,158369,-1197328,163759726,-361204,-302783,64226,61,06e1fe00,0.0,0.0,0.0,0.0,0.0,0.0
2026-05-22 17:15:03.228779,1779484503.228779,158369,-1197328,163759726,-361204,-302783,64226,61,06e1fe00,0.0,0.0,0.0,0.0,0.0,0.0
2026-05-22 17:15:03.233827,1779484503.233827,729169,-1110529,162107317,-82366,-93865,56351,61,06e1fe00,0.0,0.0,0.0,0.0,0.0,0.0
2026-05-22 17:15:03.235584,1779484503.235584,729169,-1110529,162107317,-82366,-93865,56351,61,06e1fe00,0.0,0.0,0.0,0.0,0.0,0.0
2026-05-22 17:15:03.244625,1779484503.244625,-88264,-1061866,164162638,8456,431477,18508,61,06e1fe00,0.0,0.0,0.0,0.0,0.0,0.0
2026-05-22 17:15:03.248215,1779484503.248215,-88264,-1061866,164162638,8456,431477,18508,61,06e1fe00,0.0,0.0,0.0,0.0,0.0,0.0
2026-05-22 17:15:03.253726,1779484503.253726,-473013,-935848,166136711,-21069,12977,-166,61,06e1fe00,0.0,0.0,0.0,0.0,0.0,0.0
2026-05-22 17:15:03.256245,1779484503.256245,-473013,-935848,166136711,-21069,12977,-166,61,06e1fe00,0.0,0.0,0.0,0.0,0.0,0.0
2026-05-22 17:15:03.263817,1779484503.263817,-581858,-1027754,164328972,-148605,-306779,-22828,61,06e1fe00,0.0,0.0,0.0,0.0,0.0,0.0
2026-05-22 17:15:03.265081,1779484503.265081,-581858,-1027754,164328972,-148605,-306779,-22828,61,06e1fe00,0.0,0.0,0.0,0.0,0.0,0.0
2026-05-22 17:15:03.274513,1779484503.274513,-73007,-1052990,163095445,89754,-204259,2681,61,06e0fe00,0.0,0.0,0.0,0.0,0.0,0.0
2026-05-22 17:15:03.276557,1779484503.276557,-73007,-1052990,163095445,89754,-204259,2681,61,06e0fe00,0.0,0.0,0.0,0.0,0.0,0.0
2026-05-22 17:15:03.283991,1779484503.283991,-123809,-1091124,164406129,142315,178125,-3864,61,06e0fe00,0.0,0.0,0.0,0.0,0.0,0.0
2026-05-22 17:15:03.286112,1779484503.286112,-123809,-1091124,164406129,142315,178125,-3864,61,06e0fe00,0.0,0.0,0.0,0.0,0.0,0.0
2026-05-22 17:15:03.295930,1779484503.295930,44858,-880130,165423524,129320,-23482,-11880,61,06e0fe00,0.0,0.0,0.0,0.0,0.0,0.0
2026-05-22 17:15:03.298910,1779484503.298910,44858,-880130,165423524,129320,-23482,-11880,61,06e0fe00,0.0,0.0,0.0,0.0,0.0,0.0
2026-05-22 17:15:03.303819,1779484503.303819,161027,-925555,163833993,54216,-336945,-25073,61,06e0fe00,0.0,0.0,0.0,0.0,0.0,0.0
2026-05-22 17:15:03.305081,1779484503.305081,161027,-925555,163833993,54216,-336945,-25073,61,06e0fe00,0.0,0.0,0.0,0.0,0.0,0.0
2026-05-22 17:15:03.314016,1779484503.314016,87770,-811349,163516707,230774,99069,9302,61,06e0fe00,0.0,0.0,0.0,0.0,0.0,0.0
2026-05-22 17:15:03.315477,1779484503.315477,87770,-811349,163516707,230774,99069,9302,61,06e0fe00,0.0,0.0,0.0,0.0,0.0,0.0
2026-05-22 17:15:03.324066,1779484503.324066,-497654,-831380,165483670,237142,103180,2005,61,06e0fe00,0.0,0.0,0.0,0.0,0.0,0.0
2026-05-22 17:15:03.325569,1779484503.325569,-497654,-831380,165483670,237142,103180,2005,61,06e0fe00,0.0,0.0,0.0,0.0,0.0,0.0
2026-05-22 17:15:03.334582,1779484503.334582,9062,-736244,165339678,168008,-84431,15063,61,06e1fe00,0.0,0.0,0.0,0.0,0.0,0.0
2026-05-22 17:15:03.336306,1779484503.336306,9062,-736244,165339678,168008,-84431,15063,61,06e1fe00,0.0,0.0,0.0,0.0,0.0,0.0
2026-05-22 17:15:03.345563,1779484503.345563,441355,-862398,162946823,146576,-405214,24191,61,06e1fe00,0.0,0.0,0.0,0.0,0.0,0.0
2026-05-22 17:15:03.352154,1779484503.352154,441355,-862398,162946823,146576,-405214,24191,61,06e1fe00,0.0,0.0,0.0,0.0,0.0,0.0
2026-05-22 17:15:03.354298,1779484503.354298,329259,-410182,163158430,332462,278397,117485,61,06e1fe00,0.0,0.0,0.0,0.0,0.0,0.0
2026-05-22 17:15:03.355776,1779484503.355776,329259,-410182,163158430,332462,278397,117485,61,06e1fe00,0.0,0.0,0.0,0.0,0.0,0.0
2026-05-22 17:15:03.364508,1779484503.364508,-642609,-212975,165855590,382471,183198,123844,61,06e1fe00,0.0,0.0,0.0,0.0,0.0,0.0
2026-05-22 17:15:03.367003,1779484503.367003,-642609,-212975,165855590,382471,183198,123844,61,06e1fe00,0.0,0.0,0.0,0.0,0.0,0.0
2026-05-22 17:15:03.374949,1779484503.374949,-610203,-355335,165654050,237365,-44586,127823,61,06e0fe00,0.0,0.0,0.0,0.0,0.0,0.0
2026-05-22 17:15:03.377689,1779484503.377689,-610203,-355335,165654050,237365,-44586,127823,61,06e0fe00,0.0,0.0,0.0,0.0,0.0,0.0
2026-05-22 17:15:03.384434,1779484503.384434,-48125,-463930,163060506,285386,-428711,109117,61,06e0fe00,0.0,0.0,0.0,0.0,0.0,0.0
2026-05-22 17:15:03.386634,1779484503.386634,-48125,-463930,163060506,285386,-428711,109117,61,06e0fe00,0.0,0.0,0.0,0.0,0.0,0.0
2026-05-22 17:15:03.394094,1779484503.394094,184692,-230248,163032647,376094,242295,137644,61,06e0fe00,0.0,0.0,0.0,0.0,0.0,0.0
2026-05-22 17:15:03.395824,1779484503.395824,184692,-230248,163032647,376094,242295,137644,61,06e0fe00,0.0,0.0,0.0,0.0,0.0,0.0
2026-05-22 17:15:03.404096,1779484503.404096,-191667,96852,165766153,443044,163179,103636,61,06e0fe00,0.0,0.0,0.0,0.0,0.0,0.0
2026-05-22 17:15:03.405775,1779484503.405775,-191667,96852,165766153,443044,163179,103636,61,06e0fe00,0.0,0.0,0.0,0.0,0.0,0.0
2026-05-22 17:15:03.414994,1779484503.414994,-255049,133234,165678952,190670,-21962,98338,61,06e0fe00,0.0,0.0,0.0,0.0,0.0,0.0
2026-05-22 17:15:03.417680,1779484503.417680,-255049,133234,165678952,190670,-21962,98338,61,06e0fe00,0.0,0.0,0.0,0.0,0.0,0.0
2026-05-22 17:15:03.424913,1779484503.424913,289883,68344,163253954,263432,-386981,108502,61,06e0fe00,0.0,0.0,0.0,0.0,0.0,0.0
2026-05-22 17:15:03.426477,1779484503.426477,289883,68344,163253954,263432,-386981,108502,61,06e0fe00,0.0,0.0,0.0,0.0,0.0,0.0
2026-05-22 17:15:03.434182,1779484503.434182,358061,159220,162841545,315462,361378,116977,61,06e0fe00,0.0,0.0,0.0,0.0,0.0,0.0
2026-05-22 17:15:03.436282,1779484503.436282,358061,159220,162841545,315462,361378,116977,61,06e0fe00,0.0,0.0,0.0,0.0,0.0,0.0
2026-05-22 17:15:03.444284,1779484503.444284,212537,275033,165318795,423574,175463,126092,61,06e0fe00,0.0,0.0,0.0,0.0,0.0,0.0
2026-05-22 17:15:03.447243,1779484503.447243,212537,275033,165318795,423574,175463,126092,61,06e0fe00,0.0,0.0,0.0,0.0,0.0,0.0
2026-05-22 17:15:03.455088,1779484503.455088,-39487,430318,165328899,140278,62952,112972,61,06e0fe00,0.0,0.0,0.0,0.0,0.0,0.0
2026-05-22 17:15:03.457332,1779484503.457332,-39487,430318,165328899,140278,62952,112972,61,06e0fe00,0.0,0.0,0.0,0.0,0.0,0.0
2026-05-22 17:15:03.464386,1779484503.464386,153293,556745,163571461,183486,-306904,109632,61,06e0fe00,0.0,0.0,0.0,0.0,0.0,0.0
2026-05-22 17:15:03.465986,1779484503.465986,153293,556745,163571461,183486,-306904,109632,61,06e0fe00,0.0,0.0,0.0,0.0,0.0,0.0
2026-05-22 17:15:03.473978,1779484503.473978,-132246,761883,163169068,192725,368116,107152,61,06e0fe00,0.0,0.0,0.0,0.0,0.0,0.0
2026-05-22 17:15:03.475720,1779484503.475720,-132246,761883,163169068,192725,368116,107152,61,06e0fe00,0.0,0.0,0.0,0.0,0.0,0.0
2026-05-22 17:15:03.484319,1779484503.484319,-326634,866414,164792577,221728,157832,68508,61,06e0fe00,0.0,0.0,0.0,0.0,0.0,0.0
2026-05-22 17:15:03.487126,1779484503.487126,-326634,866414,164792577,221728,157832,68508,61,06e0fe00,0.0,0.0,0.0,0.0,0.0,0.0
2026-05-22 17:15:03.495019,1779484503.495019,-463868,758962,164788505,25614,76427,43488,61,06e0fe00,0.0,0.0,0.0,0.0,0.0,0.0
2026-05-22 17:15:03.497570,1779484503.497570,-463868,758962,164788505,25614,76427,43488,61,06e0fe00,0.0,0.0,0.0,0.0,0.0,0.0
2026-05-22 17:15:03.503890,1779484503.503890,-462316,633853,164101660,740,-200436,51834,61,06e0fe00,0.0,0.0,0.0,0.0,0.0,0.0
2026-05-22 17:15:03.505134,1779484503.505134,-462316,633853,164101660,740,-200436,51834,61,06e0fe00,0.0,0.0,0.0,0.0,0.0,0.0
2026-05-22 17:15:03.514505,1779484503.514505,-476054,620754,164069737,-23095,86969,59627,61,06e0fe00,0.0,0.0,0.0,0.0,0.0,0.0
2026-05-22 17:15:03.516444,1779484503.516444,-476054,620754,164069737,-23095,86969,59627,61,06e0fe00,0.0,0.0,0.0,0.0,0.0,0.0
2026-05-22 17:15:03.523854,1779484503.523854,-184232,623107,164633336,-8605,-4810,44947,61,06e0fe00,0.0,0.0,0.0,0.0,0.0,0.0
2026-05-22 17:15:03.525121,1779484503.525121,-184232,623107,164633336,-8605,-4810,44947,61,06e0fe00,0.0,0.0,0.0,0.0,0.0,0.0
2026-05-22 17:15:03.534834,1779484503.534834,186170,496344,163825627,-139136,-218503,29614,61,06e0fe00,0.0,0.0,0.0,0.0,0.0,0.0
2026-05-22 17:15:03.536874,1779484503.536874,186170,496344,163825627,-139136,-218503,29614,61,06e0fe00,0.0,0.0,0.0,0.0,0.0,0.0
2026-05-22 17:15:03.544326,1779484503.544326,440646,713295,163734960,-158967,-49536,21137,61,06e0fe00,0.0,0.0,0.0,0.0,0.0,0.0
2026-05-22 17:15:03.547480,1779484503.547480,440646,713295,163734960,-158967,-49536,21137,61,06e0fe00,0.0,0.0,0.0,0.0,0.0,0.0
2026-05-22 17:15:03.555381,1779484503.555381,-360643,587218,164556355,-235997,94163,18917,61,06e0fe00,0.0,0.0,0.0,0.0,0.0,0.0
2026-05-22 17:15:03.558134,1779484503.558134,-360643,587218,164556355,-235997,94163,18917,61,06e0fe00,0.0,0.0,0.0,0.0,0.0,0.0
2026-05-22 17:15:03.564268,1779484503.564268,-229701,376165,165179213,-242027,-4870,7564,61,06e0fe00,0.0,0.0,0.0,0.0,0.0,0.0
2026-05-22 17:15:03.565772,1779484503.565772,-229701,376165,165179213,-242027,-4870,7564,61,06e0fe00,0.0,0.0,0.0,0.0,0.0,0.0
2026-05-22 17:15:03.574129,1779484503.574129,-275248,-168174,163354409,-369127,-255023,7340,61,06e0fe00,0.0,0.0,0.0,0.0,0.0,0.0
2026-05-22 17:15:03.575987,1779484503.575987,-275248,-168174,163354409,-369127,-255023,7340,61,06e0fe00,0.0,0.0,0.0,0.0,0.0,0.0
2026-05-22 17:15:03.584743,1779484503.584743,139215,-79145,163190218,-263914,-276768,11140,61,06e0fe00,0.0,0.0,0.0,0.0,0.0,0.0
2026-05-22 17:15:03.586824,1779484503.586824,139215,-79145,163190218,-263914,-276768,11140,61,06e0fe00,0.0,0.0,0.0,0.0,0.0,0.0
2026-05-22 17:15:03.593974,1779484503.593974,-684410,17857,164825105,-224181,76893,16661,61,06e0fe00,0.0,0.0,0.0,0.0,0.0,0.0
2026-05-22 17:15:03.596166,1779484503.596166,-684410,17857,164825105,-224181,76893,16661,61,06e0fe00,0.0,0.0,0.0,0.0,0.0,0.0
2026-05-22 17:15:03.604373,1779484503.604373,-223179,-179501,165220862,-343654,-68379,4798,61,06e0fe00,0.0,0.0,0.0,0.0,0.0,0.0
2026-05-22 17:15:03.605825,1779484503.605825,-223179,-179501,165220862,-343654,-68379,4798,61,06e0fe00,0.0,0.0,0.0,0.0,0.0,0.0
2026-05-22 17:15:03.614665,1779484503.614665,-455332,-553013,163128012,-376699,-304643,1521,61,06e0fe00,0.0,0.0,0.0,0.0,0.0,0.0
2026-05-22 17:15:03.616145,1779484503.616145,-455332,-553013,163128012,-376699,-304643,1521,61,06e0fe00,0.0,0.0,0.0,0.0,0.0,0.0
2026-05-22 17:15:03.624510,1779484503.624510,-13069,-519846,163532878,-227384,20633,29131,61,06e0fe00,0.0,0.0,0.0,0.0,0.0,0.0
2026-05-22 17:15:03.626646,1779484503.626646,-13069,-519846,163532878,-227384,20633,29131,61,06e0fe00,0.0,0.0,0.0,0.0,0.0,0.0
2026-05-22 17:15:03.634403,1779484503.634403,-660261,-773311,165181806,-204438,69039,33511,61,06e0fe00,0.0,0.0,0.0,0.0,0.0,0.0
2026-05-22 17:15:03.635864,1779484503.635864,-660261,-773311,165181806,-204438,69039,33511,61,06e0fe00,0.0,0.0,0.0,0.0,0.0,0.0
2026-05-22 17:15:03.649075,1779484503.649075,31061,-725655,165351413,-312537,-217730,63667,61,06e0fe00,0.0,0.0,0.0,0.0,0.0,0.0
2026-05-22 17:15:03.656703,1779484503.656703,31061,-725655,165351413,-312537,-217730,63667,61,06e0fe00,0.0,0.0,0.0,0.0,0.0,0.0
2026-05-22 17:15:03.660962,1779484503.660962,242506,-897029,163043616,-272290,-400062,73074,61,06e0fe00,0.0,0.0,0.0,0.0,0.0,0.0
2026-05-22 17:15:03.662977,1779484503.662977,242506,-897029,163043616,-272290,-400062,73074,61,06e0fe00,0.0,0.0,0.0,0.0,0.0,0.0
2026-05-22 17:15:03.794406,1779484503.794406,543667,-815447,163311600,-65819,61286,100587,61,06e0fe00,0.0,0.0,0.0,0.0,0.0,0.0
2026-05-22 17:15:03.796805,1779484503.796805,543667,-815447,163311600,-65819,61286,100587,61,06e0fe00,0.0,0.0,0.0,0.0,0.0,0.0
2026-05-22 17:15:03.837371,1779484503.837371,143522,-938834,164338169,-62803,258289,107546,61,06e0fe00,0.0,0.0,0.0,0.0,0.0,0.0
2026-05-22 17:15:03.841903,1779484503.841903,143522,-938834,164338169,-62803,258289,107546,61,06e0fe00,0.0,0.0,0.0,0.0,0.0,0.0
2026-05-22 17:15:03.844522,1779484503.844522,107609,-1094526,165477150,-162882,-181978,106247,61,06e0fe00,0.0,0.0,0.0,0.0,0.0,0.0
2026-05-22 17:15:03.849295,1779484503.849295,107609,-1094526,165477150,-162882,-181978,106247,61,06e0fe00,0.0,0.0,0.0,0.0,0.0,0.0
2026-05-22 17:15:03.855904,1779484503.855904,238432,-1134800,163007924,-147463,-417557,83660,61,06e0fe00,0.0,0.0,0.0,0.0,0.0,0.0
2026-05-22 17:15:03.861704,1779484503.861704,238432,-1134800,163007924,-147463,-417557,83660,61,06e0fe00,0.0,0.0,0.0,0.0,0.0,0.0
2026-05-22 17:15:03.866067,1779484503.866067,204354,-905710,163355366,30735,239854,111218,61,06dffe00,0.0,0.0,0.0,0.0,0.0,0.0
2026-05-22 17:15:03.870391,1779484503.870391,204354,-905710,163355366,30735,239854,111218,61,06dffe00,0.0,0.0,0.0,0.0,0.0,0.0
2026-05-22 17:15:03.878303,1779484503.878303,-385747,-828481,165716933,120752,16181,90445,61,06e0fe00,0.0,0.0,0.0,0.0,0.0,0.0
2026-05-22 17:15:03.882117,1779484503.882117,-385747,-828481,165716933,120752,16181,90445,61,06e0fe00,0.0,0.0,0.0,0.0,0.0,0.0
2026-05-22 17:15:03.884127,1779484503.884127,-2327,-835039,165315868,-41298,-120415,103368,61,06dffe00,0.0,0.0,0.0,0.0,0.0,0.0
2026-05-22 17:15:03.886799,1779484503.886799,-2327,-835039,165315868,-41298,-120415,103368,61,06dffe00,0.0,0.0,0.0,0.0,0.0,0.0
2026-05-22 17:15:03.890640,1779484503.890640,-54315,-901662,164044490,-71503,-290425,96244,61,06dffe00,0.0,0.0,0.0,0.0,0.0,0.0
2026-05-22 17:15:03.892941,1779484503.892941,-54315,-901662,164044490,-71503,-290425,96244,61,06dffe00,0.0,0.0,0.0,0.0,0.0,0.0
2026-05-22 17:15:03.894434,1779484503.894434,536354,-796669,163115106,141344,-98112,111676,61,06dffe00,0.0,0.0,0.0,0.0,0.0,0.0
2026-05-22 17:15:03.899292,1779484503.899292,536354,-796669,163115106,141344,-98112,111676,61,06dffe00,0.0,0.0,0.0,0.0,0.0,0.0
2026-05-22 17:15:03.905970,1779484503.905970,-59164,-798529,165720171,192089,112073,92639,61,06dffe00,0.0,0.0,0.0,0.0,0.0,0.0
2026-05-22 17:15:03.909160,1779484503.909160,-59164,-798529,165720171,192089,112073,92639,61,06dffe00,0.0,0.0,0.0,0.0,0.0,0.0
2026-05-22 17:15:03.910961,1779484503.910961,218091,-759722,164922312,45963,-111631,86815,61,06dffe00,0.0,0.0,0.0,0.0,0.0,0.0
2026-05-22 17:15:03.913622,1779484503.913622,218091,-759722,164922312,45963,-111631,86815,61,06dffe00,0.0,0.0,0.0,0.0,0.0,0.0
2026-05-22 17:15:03.916897,1779484503.916897,573542,-574599,162999593,165066,-299388,71222,61,06dffe00,0.0,0.0,0.0,0.0,0.0,0.0
2026-05-22 17:15:03.919986,1779484503.919986,573542,-574599,162999593,165066,-299388,71222,61,06dffe00,0.0,0.0,0.0,0.0,0.0,0.0
2026-05-22 17:15:03.925814,1779484503.925814,94889,-357593,163673611,216647,364185,85718,61,06dffe00,0.0,0.0,0.0,0.0,0.0,0.0
2026-05-22 17:15:03.930412,1779484503.930412,94889,-357593,163673611,216647,364185,85718,61,06dffe00,0.0,0.0,0.0,0.0,0.0,0.0
2026-05-22 17:15:03.938042,1779484503.938042,-324068,-290088,165878023,271245,143561,81122,61,06dffe00,0.0,0.0,0.0,0.0,0.0,0.0
2026-05-22 17:15:03.943704,1779484503.943704,-324068,-290088,165878023,271245,143561,81122,61,06dffe00,0.0,0.0,0.0,0.0,0.0,0.0
2026-05-22 17:15:03.947827,1779484503.947827,-264057,-299549,165770240,158913,72099,77060,61,06dffe00,0.0,0.0,0.0,0.0,0.0,0.0
2026-05-22 17:15:03.952885,1779484503.952885,-264057,-299549,165770240,158913,72099,77060,61,06dffe00,0.0,0.0,0.0,0.0,0.0,0.0
2026-05-22 17:15:03.959011,1779484503.959011,176712,-337084,162930283,273211,-155433,65626,61,06dffe00,0.0,0.0,0.0,0.0,0.0,0.0
2026-05-22 17:15:03.963288,1779484503.963288,176712,-337084,162930283,273211,-155433,65626,61,06dffe00,0.0,0.0,0.0,0.0,0.0,0.0
2026-05-22 17:15:03.965141,1779484503.965141,-286950,-234446,163830767,323877,416406,50779,61,06dffe00,0.0,0.0,0.0,0.0,0.0,0.0
2026-05-22 17:15:03.968579,1779484503.968579,-286950,-234446,163830767,323877,416406,50779,61,06dffe00,0.0,0.0,0.0,0.0,0.0,0.0
2026-05-22 17:15:03.971649,1779484503.971649,-186337,147857,165876710,337697,43490,8795,61,06dffe00,0.0,0.0,0.0,0.0,0.0,0.0
2026-05-22 17:15:03.975074,1779484503.975074,-186337,147857,165876710,337697,43490,8795,61,06dffe00,0.0,0.0,0.0,0.0,0.0,0.0
2026-05-22 17:15:03.980227,1779484503.980227,-293339,119792,164450140,125402,-123344,-17070,61,06dffe00,0.0,0.0,0.0,0.0,0.0,0.0
2026-05-22 17:15:03.992203,1779484503.992203,-293339,119792,164450140,125402,-123344,-17070,61,06dffe00,0.0,0.0,0.0,0.0,0.0,0.0
2026-05-22 17:15:03.999416,1779484503.999416,264647,210165,163198733,266450,-192860,-13428,61,06dffe00,0.0,0.0,0.0,0.0,0.0,0.0
2026-05-22 17:15:04.006049,1779484504.006049,264647,210165,163198733,266450,-192860,-13428,61,06dffe00,0.0,0.0,0.0,0.0,0.0,0.0
2026-05-22 17:15:04.009733,1779484504.009733,-373475,158367,163965617,250531,372806,21860,61,06dffe00,0.0,0.0,0.0,0.0,0.0,0.0
2026-05-22 17:15:04.017050,1779484504.017050,-373475,158367,163965617,250531,372806,21860,61,06dffe00,0.0,0.0,0.0,0.0,0.0,0.0
2026-05-22 17:15:04.022147,1779484504.022147,-233756,339841,165643511,228535,47699,38976,61,06dffe00,0.0,0.0,0.0,0.0,0.0,0.0
2026-05-22 17:15:04.027670,1779484504.027670,-233756,339841,165643511,228535,47699,38976,61,06dffe00,0.0,0.0,0.0,0.0,0.0,0.0
2026-05-22 17:15:04.032009,1779484504.032009,-169689,256346,165168860,78480,4846,62420,61,06dffe00,0.0,0.0,0.0,0.0,0.0,0.0
2026-05-22 17:15:04.037501,1779484504.037501,-169689,256346,165168860,78480,4846,62420,61,06dffe00,0.0,0.0,0.0,0.0,0.0,0.0
2026-05-22 17:15:04.043123,1779484504.043123,195726,412422,163159706,141485,-61653,45360,61,06dffe00,0.0,0.0,0.0,0.0,0.0,0.0
2026-05-22 17:15:04.047821,1779484504.047821,195726,412422,163159706,141485,-61653,45360,61,06dffe00,0.0,0.0,0.0,0.0,0.0,0.0
2026-05-22 17:15:04.052536,1779484504.052536,-498838,402071,164537028,153034,323496,42767,61,06dffe00,0.0,0.0,0.0,0.0,0.0,0.0
2026-05-22 17:15:04.054954,1779484504.054954,-498838,402071,164537028,153034,323496,42767,61,06dffe00,0.0,0.0,0.0,0.0,0.0,0.0
2026-05-22 17:15:04.057688,1779484504.057688,-300243,427770,165514898,103602,109173,26144,61,06dffe00,0.0,0.0,0.0,0.0,0.0,0.0
2026-05-22 17:15:04.059673,1779484504.059673,-300243,427770,165514898,103602,109173,26144,61,06dffe00,0.0,0.0,0.0,0.0,0.0,0.0
2026-05-22 17:15:04.061399,1779484504.061399,-185214,173836,163654649,-70176,-253581,18124,61,06dffe00,0.0,0.0,0.0,0.0,0.0,0.0
2026-05-22 17:15:04.065334,1779484504.065334,-185214,173836,163654649,-70176,-253581,18124,61,06dffe00,0.0,0.0,0.0,0.0,0.0,0.0
2026-05-22 17:15:04.069806,1779484504.069806,-9581,522326,163003128,57061,110019,48360,61,06dffe00,0.0,0.0,0.0,0.0,0.0,0.0
2026-05-22 17:15:04.071979,1779484504.071979,-9581,522326,163003128,57061,110019,48360,61,06dffe00,0.0,0.0,0.0,0.0,0.0,0.0
2026-05-22 17:15:04.075182,1779484504.075182,-810675,487848,165011389,79241,218951,42333,61,06dffe00,0.0,0.0,0.0,0.0,0.0,0.0
2026-05-22 17:15:04.082897,1779484504.082897,-810675,487848,165011389,79241,218951,42333,61,06dffe00,0.0,0.0,0.0,0.0,0.0,0.0
2026-05-22 17:15:04.087091,1779484504.087091,-565799,442674,165721100,-87348,-17252,55394,61,06dffe00,0.0,0.0,0.0,0.0,0.0,0.0
2026-05-22 17:15:04.093679,1779484504.093679,-565799,442674,165721100,-87348,-17252,55394,61,06dffe00,0.0,0.0,0.0,0.0,0.0,0.0
2026-05-22 17:15:04.098152,1779484504.098152,-242891,185167,163477268,-176448,-458675,39347,61,06dffe00,0.0,0.0,0.0,0.0,0.0,0.0
2026-05-22 17:15:04.104738,1779484504.104738,-242891,185167,163477268,-176448,-458675,39347,61,06dffe00,0.0,0.0,0.0,0.0,0.0,0.0
2026-05-22 17:15:04.108555,1779484504.108555,212729,232150,162885182,-126362,32728,105738,61,06dffe00,0.0,0.0,0.0,0.0,0.0,0.0
2026-05-22 17:15:04.113505,1779484504.113505,212729,232150,162885182,-126362,32728,105738,61,06dffe00,0.0,0.0,0.0,0.0,0.0,0.0
2026-05-22 17:15:04.117925,1779484504.117925,-535579,190719,165124213,-65473,132004,126977,61,06dffe00,0.0,0.0,0.0,0.0,0.0,0.0
2026-05-22 17:15:04.124201,1779484504.124201,-535579,190719,165124213,-65473,132004,126977,61,06dffe00,0.0,0.0,0.0,0.0,0.0,0.0
2026-05-22 17:15:04.127030,1779484504.127030,-417986,109827,165848823,-262037,-96275,136677,61,06dffe00,0.0,0.0,0.0,0.0,0.0,0.0
2026-05-22 17:15:04.130090,1779484504.130090,-417986,109827,165848823,-262037,-96275,136677,61,06dffe00,0.0,0.0,0.0,0.0,0.0,0.0
2026-05-22 17:15:04.132643,1779484504.132643,-50784,-241760,163489567,-261518,-519159,94696,61,06dffe00,0.0,0.0,0.0,0.0,0.0,0.0
2026-05-22 17:15:04.135729,1779484504.135729,-50784,-241760,163489567,-261518,-519159,94696,61,06dffe00,0.0,0.0,0.0,0.0,0.0,0.0
2026-05-22 17:15:04.137900,1779484504.137900,408193,-246997,162689219,-142264,36977,108942,61,06dffe00,0.0,0.0,0.0,0.0,0.0,0.0
2026-05-22 17:15:04.141778,1779484504.141778,408193,-246997,162689219,-142264,36977,108942,61,06dffe00,0.0,0.0,0.0,0.0,0.0,0.0
2026-05-22 17:15:04.147242,1779484504.147242,26043,-274556,164795857,-28370,110934,88947,61,06defe00,0.0,0.0,0.0,0.0,0.0,0.0
2026-05-22 17:15:04.152240,1779484504.152240,26043,-274556,164795857,-28370,110934,88947,61,06defe00,0.0,0.0,0.0,0.0,0.0,0.0
2026-05-22 17:15:04.155569,1779484504.155569,-13317,-262361,165421504,-204460,-8825,91119,61,06defe00,0.0,0.0,0.0,0.0,0.0,0.0
2026-05-22 17:15:04.159647,1779484504.159647,-13317,-262361,165421504,-204460,-8825,91119,61,06defe00,0.0,0.0,0.0,0.0,0.0,0.0
2026-05-22 17:15:04.163181,1779484504.163181,22497,-441400,163687384,-202094,-428497,67739,61,06defe00,0.0,0.0,0.0,0.0,0.0,0.0
2026-05-22 17:15:04.171012,1779484504.171012,22497,-441400,163687384,-202094,-428497,67739,61,06defe00,0.0,0.0,0.0,0.0,0.0,0.0
2026-05-22 17:15:04.176513,1779484504.176513,-27793,-408322,163337858,-80617,174896,82184,61,06defe00,0.0,0.0,0.0,0.0,0.0,0.0
2026-05-22 17:15:04.182150,1779484504.182150,-27793,-408322,163337858,-80617,174896,82184,61,06defe00,0.0,0.0,0.0,0.0,0.0,0.0
2026-05-22 17:15:04.187413,1779484504.187413,-200188,-422773,165091138,20366,-109,72667,61,06defe00,0.0,0.0,0.0,0.0,0.0,0.0
2026-05-22 17:15:04.192864,1779484504.192864,-200188,-422773,165091138,20366,-109,72667,61,06defe00,0.0,0.0,0.0,0.0,0.0,0.0
2026-05-22 17:15:04.196747,1779484504.196747,47721,-404849,164861431,-150918,-66081,87196,61,06defe00,0.0,0.0,0.0,0.0,0.0,0.0
2026-05-22 17:15:04.202800,1779484504.202800,47721,-404849,164861431,-150918,-66081,87196,61,06defe00,0.0,0.0,0.0,0.0,0.0,0.0
2026-05-22 17:15:04.207970,1779484504.207970,312411,-430027,163602173,-88835,-415421,67953,61,06defe00,0.0,0.0,0.0,0.0,0.0,0.0
2026-05-22 17:15:04.212226,1779484504.212226,312411,-430027,163602173,-88835,-415421,67953,61,06defe00,0.0,0.0,0.0,0.0,0.0,0.0
2026-05-22 17:15:04.217343,1779484504.217343,-39710,-483135,163978300,-70185,224685,62010,61,06defe00,0.0,0.0,0.0,0.0,0.0,0.0
2026-05-22 17:15:04.222294,1779484504.222294,-39710,-483135,163978300,-70185,224685,62010,61,06defe00,0.0,0.0,0.0,0.0,0.0,0.0
2026-05-22 17:15:04.226849,1779484504.226849,-188711,-618423,165616961,-4551,-19117,42733,61,06defe00,0.0,0.0,0.0,0.0,0.0,0.0
2026-05-22 17:15:04.232419,1779484504.232419,-188711,-618423,165616961,-4551,-19117,42733,61,06defe00,0.0,0.0,0.0,0.0,0.0,0.0
2026-05-22 17:15:04.235520,1779484504.235520,158876,-769796,164417702,-164807,-73783,52822,61,06defe00,0.0,0.0,0.0,0.0,0.0,0.0
2026-05-22 17:15:04.239493,1779484504.239493,158876,-769796,164417702,-164807,-73783,52822,61,06defe00,0.0,0.0,0.0,0.0,0.0,0.0
2026-05-22 17:15:04.244183,1779484504.244183,812323,-605859,162959343,-12715,-304016,61666,61,06defe00,0.0,0.0,0.0,0.0,0.0,0.0
2026-05-22 17:15:04.248137,1779484504.248137,812323,-605859,162959343,-12715,-304016,61666,61,06defe00,0.0,0.0,0.0,0.0,0.0,0.0
2026-05-22 17:15:04.250667,1779484504.250667,360499,-454847,163884026,22934,369315,62678,61,06dffe00,0.0,0.0,0.0,0.0,0.0,0.0
2026-05-22 17:15:04.253496,1779484504.253496,360499,-454847,163884026,22934,369315,62678,61,06dffe00,0.0,0.0,0.0,0.0,0.0,0.0
2026-05-22 17:15:04.255070,1779484504.255070,69791,-412951,166090270,72471,86759,37648,61,06defe00,0.0,0.0,0.0,0.0,0.0,0.0
2026-05-22 17:15:04.261283,1779484504.261283,69791,-412951,166090270,72471,86759,37648,61,06defe00,0.0,0.0,0.0,0.0,0.0,0.0
2026-05-22 17:15:04.266200,1779484504.266200,-12369,-683954,164410909,-119602,-89026,35227,61,06defe00,0.0,0.0,0.0,0.0,0.0,0.0
2026-05-22 17:15:04.270952,1779484504.270952,-12369,-683954,164410909,-119602,-89026,35227,61,06defe00,0.0,0.0,0.0,0.0,0.0,0.0
2026-05-22 17:15:04.273862,1779484504.273862,479214,-679176,162586830,40343,-161652,33418,61,06defe00,0.0,0.0,0.0,0.0,0.0,0.0
2026-05-22 17:15:04.277736,1779484504.277736,479214,-679176,162586830,40343,-161652,33418,61,06defe00,0.0,0.0,0.0,0.0,0.0,0.0
2026-05-22 17:15:04.281884,1779484504.281884,-315361,-641685,163712803,94421,465646,47699,61,06defe00,0.0,0.0,0.0,0.0,0.0,0.0
2026-05-22 17:15:04.285274,1779484504.285274,-315361,-641685,163712803,94421,465646,47699,61,06defe00,0.0,0.0,0.0,0.0,0.0,0.0
2026-05-22 17:15:04.286845,1779484504.286845,-572022,-480516,165215416,134767,248055,41237,61,06defe00,0.0,0.0,0.0,0.0,0.0,0.0
2026-05-22 17:15:04.288261,1779484504.288261,-572022,-480516,165215416,134767,248055,41237,61,06defe00,0.0,0.0,0.0,0.0,0.0,0.0
