sys_datetime,unix_timestamp,raw_accel_x_lsb,raw_accel_y_lsb,raw_accel_z_lsb,raw_gyro_x_lsb,raw_gyro_y_lsb,raw_gyro_z_lsb,imu_type,imu_status_hex,veh_lat_acc_ms2,veh_long_acc_ms2,veh_vert_acc_ms2,veh_pitch_rate_degs,veh_roll_rate_degs,veh_yaw_rate_degs
2026-05-25 09:17:26.051978,1779715046.051978,,,,,,,,,0.0,0.0,0.0,0.0,0.0,0.0
2026-05-25 09:17:26.069179,1779715046.069179,,,,,,,,,0.0,0.0,0.0,0.0,0.0,0.0
2026-05-25 09:17:26.087673,1779715046.087673,2128407,-1188008,164331981,-16659,-152733,27774,61,f690fe00,0.0,0.0,0.0,0.0,0.0,0.0
2026-05-25 09:17:26.104196,1779715046.104196,2128407,-1188008,164331981,-16659,-152733,27774,61,f690fe00,0.0,0.0,0.0,0.0,0.0,0.0
2026-05-25 09:17:26.119792,1779715046.119792,2128407,-1188008,164331981,-16659,-152733,27774,61,f690fe00,0.0,0.0,0.0,0.0,0.0,0.0
2026-05-25 09:17:26.133524,1779715046.133524,2128407,-1188008,164331981,-16659,-152733,27774,61,f690fe00,0.0,0.0,0.0,0.0,0.0,0.0
2026-05-25 09:17:26.141746,1779715046.141746,2128407,-1188008,164331981,-16659,-152733,27774,61,f690fe00,0.0,0.0,0.0,0.0,0.0,0.0
2026-05-25 09:17:26.149773,1779715046.149773,2128407,-1188008,164331981,-16659,-152733,27774,61,f690fe00,0.0,0.0,0.0,0.0,0.0,0.0
2026-05-25 09:17:26.158221,1779715046.158221,2128407,-1188008,164331981,-16659,-152733,27774,61,f690fe00,0.0,0.0,0.0,0.0,0.0,0.0
2026-05-25 09:17:26.166226,1779715046.166226,2128407,-1188008,164331981,-16659,-152733,27774,61,f690fe00,0.0,0.0,0.0,0.0,0.0,0.0
2026-05-25 09:17:26.174585,1779715046.174585,2128407,-1188008,164331981,-16659,-152733,27774,61,f690fe00,0.0,0.0,0.0,0.0,0.0,0.0
2026-05-25 09:17:26.182504,1779715046.182504,2128407,-1188008,164331981,-16659,-152733,27774,61,f690fe00,0.0,0.0,0.0,0.0,0.0,0.0
2026-05-25 09:17:26.191878,1779715046.191878,2128407,-1188008,164331981,-16659,-152733,27774,61,f690fe00,0.0,0.0,0.0,0.0,0.0,0.0
2026-05-25 09:17:26.200026,1779715046.200026,2128407,-1188008,164331981,-16659,-152733,27774,61,f690fe00,0.0,0.0,0.0,0.0,0.0,0.0
2026-05-25 09:17:26.208096,1779715046.208096,2128407,-1188008,164331981,-16659,-152733,27774,61,f690fe00,0.0,0.0,0.0,0.0,0.0,0.0
2026-05-25 09:17:26.216162,1779715046.216162,2128407,-1188008,164331981,-16659,-152733,27774,61,f690fe00,0.0,0.0,0.0,0.0,0.0,0.0
2026-05-25 09:17:26.224010,1779715046.224010,2128407,-1188008,164331981,-16659,-152733,27774,61,f690fe00,0.0,0.0,0.0,0.0,0.0,0.0
2026-05-25 09:17:26.234101,1779715046.234101,2128407,-1188008,164331981,-16659,-152733,27774,61,f690fe00,0.0,0.0,0.0,0.0,0.0,0.0
2026-05-25 09:17:26.244239,1779715046.244239,2128407,-1188008,164331981,-16659,-152733,27774,61,f690fe00,0.0,0.0,0.0,0.0,0.0,0.0
2026-05-25 09:17:26.302034,1779715046.302034,2128407,-1188008,164331981,-16659,-152733,27774,61,f690fe00,0.0,0.0,0.0,0.0,0.0,0.0
2026-05-25 09:17:26.310059,1779715046.310059,2128407,-1188008,164331981,-16659,-152733,27774,61,f690fe00,0.0,0.0,0.0,0.0,0.0,0.0
2026-05-25 09:17:26.317891,1779715046.317891,2128407,-1188008,164331981,-16659,-152733,27774,61,f690fe00,0.0,0.0,0.0,0.0,0.0,0.0
2026-05-25 09:17:26.325556,1779715046.325556,2128407,-1188008,164331981,-16659,-152733,27774,61,f690fe00,0.0,0.0,0.0,0.0,0.0,0.0
2026-05-25 09:17:26.333173,1779715046.333173,2128407,-1188008,164331981,-16659,-152733,27774,61,f690fe00,0.0,0.0,0.0,0.0,0.0,0.0
2026-05-25 09:17:26.341054,1779715046.341054,2128407,-1188008,164331981,-16659,-152733,27774,61,f690fe00,0.0,0.0,0.0,0.0,0.0,0.0
2026-05-25 09:17:26.349291,1779715046.349291,2128407,-1188008,164331981,-16659,-152733,27774,61,f690fe00,0.0,0.0,0.0,0.0,0.0,0.0
2026-05-25 09:17:26.356938,1779715046.356938,2128407,-1188008,164331981,-16659,-152733,27774,61,f690fe00,0.0,0.0,0.0,0.0,0.0,0.0
2026-05-25 09:17:26.364605,1779715046.364605,2128407,-1188008,164331981,-16659,-152733,27774,61,f690fe00,0.0,0.0,0.0,0.0,0.0,0.0
2026-05-25 09:17:26.372274,1779715046.372274,2128407,-1188008,164331981,-16659,-152733,27774,61,f690fe00,0.0,0.0,0.0,0.0,0.0,0.0
2026-05-25 09:17:26.379930,1779715046.379930,2128407,-1188008,164331981,-16659,-152733,27774,61,f690fe00,0.0,0.0,0.0,0.0,0.0,0.0
2026-05-25 09:17:26.704822,1779715046.704822,2495009,-1484391,164622455,118214,402949,105777,61,f681fe00,0.0,0.0,0.0,0.0,0.0,0.0
2026-05-25 09:17:26.714991,1779715046.714991,2495009,-1484391,164622455,118214,402949,105777,61,f681fe00,0.0,0.0,0.0,0.0,0.0,0.0
2026-05-25 09:17:26.803979,1779715046.803979,2237795,-1210485,164359320,-43556,-28985,62521,61,f677fe00,0.0,0.0,0.0,0.0,0.0,0.0
2026-05-25 09:17:26.813641,1779715046.813641,2237795,-1210485,164359320,-43556,-28985,62521,61,f677fe00,0.0,0.0,0.0,0.0,0.0,0.0
2026-05-25 09:17:26.822275,1779715046.822275,722550,-1342077,163505067,-110466,-603842,-9168,61,f673fe00,0.0,0.0,0.0,0.0,0.0,0.0
2026-05-25 09:17:26.832742,1779715046.832742,722550,-1342077,163505067,-110466,-603842,-9168,61,f673fe00,0.0,0.0,0.0,0.0,0.0,0.0
2026-05-25 09:17:26.840574,1779715046.840574,2610190,-1181223,164422147,63717,421382,63809,61,f66ffe00,0.0,0.0,0.0,0.0,0.0,0.0
2026-05-25 09:17:26.850820,1779715046.850820,2610190,-1181223,164422147,63717,421382,63809,61,f66ffe00,0.0,0.0,0.0,0.0,0.0,0.0
2026-05-25 09:17:26.858117,1779715046.858117,2490730,-1176857,164509287,56232,-55820,38059,61,f66bfe00,0.0,0.0,0.0,0.0,0.0,0.0
2026-05-25 09:17:26.880502,1779715046.880502,2490730,-1176857,164509287,56232,-55820,38059,61,f66bfe00,0.0,0.0,0.0,0.0,0.0,0.0
2026-05-25 09:17:26.891237,1779715046.891237,2229257,-982420,164466067,1993,28834,123329,61,f667fe00,0.0,0.0,0.0,0.0,0.0,0.0
2026-05-25 09:17:26.908932,1779715046.908932,2229257,-982420,164466067,1993,28834,123329,61,f667fe00,0.0,0.0,0.0,0.0,0.0,0.0
2026-05-25 09:17:26.917589,1779715046.917589,1730127,-960892,163816650,55254,200406,7770,61,f662fe00,0.0,0.0,0.0,0.0,0.0,0.0
2026-05-25 09:17:26.928625,1779715046.928625,1730127,-960892,163816650,55254,200406,7770,61,f662fe00,0.0,0.0,0.0,0.0,0.0,0.0
2026-05-25 09:17:26.937404,1779715046.937404,2385821,-1394102,164503306,58552,55498,18835,61,f65efe00,0.0,0.0,0.0,0.0,0.0,0.0
2026-05-25 09:17:26.946496,1779715046.946496,2385821,-1394102,164503306,58552,55498,18835,61,f65efe00,0.0,0.0,0.0,0.0,0.0,0.0
2026-05-25 09:17:26.954620,1779715046.954620,2226233,-1324865,164346441,8126,-10396,-16937,61,f65afe00,0.0,0.0,0.0,0.0,0.0,0.0
2026-05-25 09:17:26.972529,1779715046.972529,2226233,-1324865,164346441,8126,-10396,-16937,61,f65afe00,0.0,0.0,0.0,0.0,0.0,0.0
2026-05-25 09:17:27.006680,1779715047.006680,2051515,-1485936,164220565,226097,466920,38252,61,f656fe00,0.0,0.0,0.0,0.0,0.0,0.0
2026-05-25 09:17:27.024584,1779715047.024584,2051515,-1485936,164220565,226097,466920,38252,61,f656fe00,0.0,0.0,0.0,0.0,0.0,0.0
2026-05-25 09:17:27.031852,1779715047.031852,2533086,-1104972,164827136,41179,-88726,75446,61,f651fe00,0.0,0.0,0.0,0.0,0.0,0.0
2026-05-25 09:17:27.040460,1779715047.040460,2533086,-1104972,164827136,41179,-88726,75446,61,f651fe00,0.0,0.0,0.0,0.0,0.0,0.0
2026-05-25 09:17:27.047396,1779715047.047396,2841524,-934695,164676103,-78274,-130829,65338,61,f64dfe00,0.0,0.0,0.0,0.0,0.0,0.0
2026-05-25 09:17:27.055943,1779715047.055943,2841524,-934695,164676103,-78274,-130829,65338,61,f64dfe00,0.0,0.0,0.0,0.0,0.0,0.0
2026-05-25 09:17:27.064293,1779715047.064293,3410782,-1595957,165142248,-18716,237292,-25327,61,f649fe00,0.0,0.0,0.0,0.0,0.0,0.0
2026-05-25 09:17:27.082060,1779715047.082060,3410782,-1595957,165142248,-18716,237292,-25327,61,f649fe00,0.0,0.0,0.0,0.0,0.0,0.0
2026-05-25 09:17:27.096437,1779715047.096437,2164935,-1287301,164289504,-32593,-72956,55063,61,f645fe00,0.0,0.0,0.0,0.0,0.0,0.0
2026-05-25 09:17:27.113559,1779715047.113559,2164935,-1287301,164289504,-32593,-72956,55063,61,f645fe00,0.0,0.0,0.0,0.0,0.0,0.0
2026-05-25 09:17:27.126943,1779715047.126943,2202827,-1186649,164336890,1246,-75812,25463,61,f641fe00,0.0,0.0,0.0,0.0,0.0,0.0
2026-05-25 09:17:27.143855,1779715047.143855,2202827,-1186649,164336890,1246,-75812,25463,61,f641fe00,0.0,0.0,0.0,0.0,0.0,0.0
2026-05-25 09:17:27.157791,1779715047.157791,2019301,-1221070,164242412,-33344,190773,73799,61,f63dfe00,0.0,0.0,0.0,0.0,0.0,0.0
2026-05-25 09:17:27.175139,1779715047.175139,2019301,-1221070,164242412,-33344,190773,73799,61,f63dfe00,0.0,0.0,0.0,0.0,0.0,0.0
2026-05-25 09:17:27.189621,1779715047.189621,2379581,-1238868,164442949,-16447,-17056,59790,61,f639fe00,0.0,0.0,0.0,0.0,0.0,0.0
2026-05-25 09:17:27.204917,1779715047.204917,2379581,-1238868,164442949,-16447,-17056,59790,61,f639fe00,0.0,0.0,0.0,0.0,0.0,0.0
2026-05-25 09:17:27.212847,1779715047.212847,3160981,-1012813,164573823,-40243,43743,81069,61,f635fe00,0.0,0.0,0.0,0.0,0.0,0.0
2026-05-25 09:17:27.222024,1779715047.222024,3160981,-1012813,164573823,-40243,43743,81069,61,f635fe00,0.0,0.0,0.0,0.0,0.0,0.0
2026-05-25 09:17:27.229539,1779715047.229539,2353335,-1233640,164467375,33141,27503,57927,61,f630fe00,0.0,0.0,0.0,0.0,0.0,0.0
2026-05-25 09:17:27.245822,1779715047.245822,2353335,-1233640,164467375,33141,27503,57927,61,f630fe00,0.0,0.0,0.0,0.0,0.0,0.0
2026-05-25 09:17:27.254294,1779715047.254294,2232086,-1212424,164344845,2543,61920,55983,61,f62cfe00,0.0,0.0,0.0,0.0,0.0,0.0
2026-05-25 09:17:27.268433,1779715047.268433,2232086,-1212424,164344845,2543,61920,55983,61,f62cfe00,0.0,0.0,0.0,0.0,0.0,0.0
2026-05-25 09:17:27.276327,1779715047.276327,2330748,-1221460,164437363,17542,22296,53362,61,f628fe00,0.0,0.0,0.0,0.0,0.0,0.0
2026-05-25 09:17:27.289459,1779715047.289459,2330748,-1221460,164437363,17542,22296,53362,61,f628fe00,0.0,0.0,0.0,0.0,0.0,0.0
2026-05-25 09:17:27.303983,1779715047.303983,2342340,-1261393,164379253,-7675,21642,19260,61,f624fe00,0.0,0.0,0.0,0.0,0.0,0.0
2026-05-25 09:17:27.317885,1779715047.317885,2342340,-1261393,164379253,-7675,21642,19260,61,f624fe00,0.0,0.0,0.0,0.0,0.0,0.0
2026-05-25 09:17:27.327889,1779715047.327889,2164669,-1257935,164375379,-35354,-86885,23219,61,f620fe00,0.0,0.0,0.0,0.0,0.0,0.0
2026-05-25 09:17:27.343650,1779715047.343650,2164669,-1257935,164375379,-35354,-86885,23219,61,f620fe00,0.0,0.0,0.0,0.0,0.0,0.0
2026-05-25 09:17:27.357602,1779715047.357602,2101634,-1198356,164244848,86255,206436,71523,61,f61cfe00,0.0,0.0,0.0,0.0,0.0,0.0
2026-05-25 09:17:27.375155,1779715047.375155,2101634,-1198356,164244848,86255,206436,71523,61,f61cfe00,0.0,0.0,0.0,0.0,0.0,0.0
2026-05-25 09:17:27.383381,1779715047.383381,2611453,-1175800,164551302,17663,-30366,14098,61,f618fe00,0.0,0.0,0.0,0.0,0.0,0.0
2026-05-25 09:17:27.392700,1779715047.392700,2611453,-1175800,164551302,17663,-30366,14098,61,f618fe00,0.0,0.0,0.0,0.0,0.0,0.0
2026-05-25 09:17:27.400862,1779715047.400862,2204322,-1335239,164330555,-65677,9151,58830,61,f614fe00,0.0,0.0,0.0,0.0,0.0,0.0
2026-05-25 09:17:27.410410,1779715047.410410,2204322,-1335239,164330555,-65677,9151,58830,61,f614fe00,0.0,0.0,0.0,0.0,0.0,0.0
2026-05-25 09:17:27.417795,1779715047.417795,1718434,-1166002,164032575,23553,118891,36154,61,f60ffe00,0.0,0.0,0.0,0.0,0.0,0.0
2026-05-25 09:17:27.426366,1779715047.426366,1718434,-1166002,164032575,23553,118891,36154,61,f60ffe00,0.0,0.0,0.0,0.0,0.0,0.0
2026-05-25 09:17:27.434012,1779715047.434012,2098434,-1205971,164283633,11984,26248,57456,61,f60bfe00,0.0,0.0,0.0,0.0,0.0,0.0
2026-05-25 09:17:27.444127,1779715047.444127,2098434,-1205971,164283633,11984,26248,57456,61,f60bfe00,0.0,0.0,0.0,0.0,0.0,0.0
2026-05-25 09:17:27.452033,1779715047.452033,2710519,-1470549,164977811,99570,137110,32967,61,f607fe00,0.0,0.0,0.0,0.0,0.0,0.0
2026-05-25 09:17:27.460984,1779715047.460984,2710519,-1470549,164977811,99570,137110,32967,61,f607fe00,0.0,0.0,0.0,0.0,0.0,0.0
2026-05-25 09:17:27.468423,1779715047.468423,2180733,-1397337,164363064,-51709,-6873,25580,61,f603fe00,0.0,0.0,0.0,0.0,0.0,0.0
2026-05-25 09:17:27.477022,1779715047.477022,2180733,-1397337,164363064,-51709,-6873,25580,61,f603fe00,0.0,0.0,0.0,0.0,0.0,0.0
2026-05-25 09:17:27.488234,1779715047.488234,2080763,-1294484,164248863,3648,249454,70938,61,f5fffe00,0.0,0.0,0.0,0.0,0.0,0.0
2026-05-25 09:17:27.502115,1779715047.502115,2080763,-1294484,164248863,3648,249454,70938,61,f5fffe00,0.0,0.0,0.0,0.0,0.0,0.0
2026-05-25 09:17:27.510658,1779715047.510658,2433914,-1206007,164546958,-46523,-178194,42038,61,f5fbfe00,0.0,0.0,0.0,0.0,0.0,0.0
2026-05-25 09:17:27.528759,1779715047.528759,2433914,-1206007,164546958,-46523,-178194,42038,61,f5fbfe00,0.0,0.0,0.0,0.0,0.0,0.0
2026-05-25 09:17:27.544277,1779715047.544277,1985414,-1045980,164346353,-60553,-236562,45664,61,f5f7fe00,0.0,0.0,0.0,0.0,0.0,0.0
2026-05-25 09:17:27.561537,1779715047.561537,1985414,-1045980,164346353,-60553,-236562,45664,61,f5f7fe00,0.0,0.0,0.0,0.0,0.0,0.0
2026-05-25 09:17:27.576010,1779715047.576010,2728881,-1177949,164781993,1416,212469,73751,61,f5f3fe00,0.0,0.0,0.0,0.0,0.0,0.0
2026-05-25 09:17:27.593868,1779715047.593868,2728881,-1177949,164781993,1416,212469,73751,61,f5f3fe00,0.0,0.0,0.0,0.0,0.0,0.0
2026-05-25 09:17:27.606599,1779715047.606599,2124649,-1167166,164416848,24683,-63887,89596,61,f5effe00,0.0,0.0,0.0,0.0,0.0,0.0
2026-05-25 09:17:27.624085,1779715047.624085,2124649,-1167166,164416848,24683,-63887,89596,61,f5effe00,0.0,0.0,0.0,0.0,0.0,0.0
2026-05-25 09:17:27.638313,1779715047.638313,2255359,-1267422,164414459,-36601,-60851,44172,61,f5ebfe00,0.0,0.0,0.0,0.0,0.0,0.0
2026-05-25 09:17:27.651350,1779715047.651350,2255359,-1267422,164414459,-36601,-60851,44172,61,f5ebfe00,0.0,0.0,0.0,0.0,0.0,0.0
2026-05-25 09:17:27.665706,1779715047.665706,2100879,-1236496,164295133,14582,145699,53958,61,f5e7fe00,0.0,0.0,0.0,0.0,0.0,0.0
2026-05-25 09:17:27.683107,1779715047.683107,2100879,-1236496,164295133,14582,145699,53958,61,f5e7fe00,0.0,0.0,0.0,0.0,0.0,0.0
2026-05-25 09:17:27.697080,1779715047.697080,2223119,-1299116,164373880,76116,91277,73091,61,f5e3fe00,0.0,0.0,0.0,0.0,0.0,0.0
2026-05-25 09:17:27.707302,1779715047.707302,2223119,-1299116,164373880,76116,91277,73091,61,f5e3fe00,0.0,0.0,0.0,0.0,0.0,0.0
2026-05-25 09:17:27.715477,1779715047.715477,2088917,-1293266,164346711,-21621,-35737,68774,61,f5dffe00,0.0,0.0,0.0,0.0,0.0,0.0
2026-05-25 09:17:27.726603,1779715047.726603,2088917,-1293266,164346711,-21621,-35737,68774,61,f5dffe00,0.0,0.0,0.0,0.0,0.0,0.0
2026-05-25 09:17:27.734757,1779715047.734757,2351181,-1234764,164471378,35986,-2926,39467,61,f5dbfe00,0.0,0.0,0.0,0.0,0.0,0.0
2026-05-25 09:17:27.744737,1779715047.744737,2351181,-1234764,164471378,35986,-2926,39467,61,f5dbfe00,0.0,0.0,0.0,0.0,0.0,0.0
2026-05-25 09:17:27.752985,1779715047.752985,2117836,-1329679,164247869,-4073,46605,54140,61,f5d7fe00,0.0,0.0,0.0,0.0,0.0,0.0
2026-05-25 09:17:27.764119,1779715047.764119,2117836,-1329679,164247869,-4073,46605,54140,61,f5d7fe00,0.0,0.0,0.0,0.0,0.0,0.0
2026-05-25 09:17:27.775079,1779715047.775079,2236424,-1301643,164236760,36025,2016,52062,61,f5d4fe00,0.0,0.0,0.0,0.0,0.0,0.0
2026-05-25 09:17:27.784564,1779715047.784564,2236424,-1301643,164236760,36025,2016,52062,61,f5d4fe00,0.0,0.0,0.0,0.0,0.0,0.0
2026-05-25 09:17:27.791948,1779715047.791948,1406943,-1149377,163605162,-119339,100333,83478,61,f5cffe00,0.0,0.0,0.0,0.0,0.0,0.0
2026-05-25 09:17:27.801540,1779715047.801540,1406943,-1149377,163605162,-119339,100333,83478,61,f5cffe00,0.0,0.0,0.0,0.0,0.0,0.0
2026-05-25 09:17:27.809016,1779715047.809016,1978943,-1189799,164312237,-15448,-15659,23383,61,f5ccfe00,0.0,0.0,0.0,0.0,0.0,0.0
2026-05-25 09:17:27.818804,1779715047.818804,1978943,-1189799,164312237,-15448,-15659,23383,61,f5ccfe00,0.0,0.0,0.0,0.0,0.0,0.0
2026-05-25 09:17:27.826873,1779715047.826873,2141737,-1321368,164426262,-42087,-102830,-4616,61,f5c8fe00,0.0,0.0,0.0,0.0,0.0,0.0
2026-05-25 09:17:27.836697,1779715047.836697,2141737,-1321368,164426262,-42087,-102830,-4616,61,f5c8fe00,0.0,0.0,0.0,0.0,0.0,0.0
2026-05-25 09:17:27.844304,1779715047.844304,2182631,-1189325,164363069,784,38708,65905,61,f5c3fe00,0.0,0.0,0.0,0.0,0.0,0.0
2026-05-25 09:17:27.853165,1779715047.853165,2182631,-1189325,164363069,784,38708,65905,61,f5c3fe00,0.0,0.0,0.0,0.0,0.0,0.0
2026-05-25 09:17:27.860940,1779715047.860940,2174755,-1234966,164309575,-59079,112160,81342,61,f5c0fe00,0.0,0.0,0.0,0.0,0.0,0.0
2026-05-25 09:17:27.877801,1779715047.877801,2174755,-1234966,164309575,-59079,112160,81342,61,f5c0fe00,0.0,0.0,0.0,0.0,0.0,0.0
2026-05-25 09:17:27.886818,1779715047.886818,2228924,-1480089,164383300,-51867,-203765,19219,61,f5bcfe00,0.0,0.0,0.0,0.0,0.0,0.0
2026-05-25 09:17:27.895350,1779715047.895350,2228924,-1480089,164383300,-51867,-203765,19219,61,f5bcfe00,0.0,0.0,0.0,0.0,0.0,0.0
2026-05-25 09:17:27.901939,1779715047.901939,2080513,-1330124,164302804,-50960,32652,17655,61,f5b8fe00,0.0,0.0,0.0,0.0,0.0,0.0
2026-05-25 09:17:27.910185,1779715047.910185,2080513,-1330124,164302804,-50960,32652,17655,61,f5b8fe00,0.0,0.0,0.0,0.0,0.0,0.0
2026-05-25 09:17:27.921014,1779715047.921014,2175561,-1313356,164377069,7763,32029,5108,61,f5b3fe00,0.0,0.0,0.0,0.0,0.0,0.0
2026-05-25 09:17:27.929652,1779715047.929652,2175561,-1313356,164377069,7763,32029,5108,61,f5b3fe00,0.0,0.0,0.0,0.0,0.0,0.0
2026-05-25 09:17:27.936759,1779715047.936759,2237884,-1120924,164415469,1378,156120,48438,61,f5affe00,0.0,0.0,0.0,0.0,0.0,0.0
2026-05-25 09:17:27.950541,1779715047.950541,2237884,-1120924,164415469,1378,156120,48438,61,f5affe00,0.0,0.0,0.0,0.0,0.0,0.0
2026-05-25 09:17:27.958670,1779715047.958670,2230587,-1316431,164464522,-32985,-14851,42199,61,f5abfe00,0.0,0.0,0.0,0.0,0.0,0.0
2026-05-25 09:17:27.968537,1779715047.968537,2230587,-1316431,164464522,-32985,-14851,42199,61,f5abfe00,0.0,0.0,0.0,0.0,0.0,0.0
2026-05-25 09:17:27.976397,1779715047.976397,2220649,-1303555,164437735,-12792,15117,16898,61,f5a7fe00,0.0,0.0,0.0,0.0,0.0,0.0
2026-05-25 09:17:27.985773,1779715047.985773,2220649,-1303555,164437735,-12792,15117,16898,61,f5a7fe00,0.0,0.0,0.0,0.0,0.0,0.0
2026-05-25 09:17:28.000189,1779715048.000189,1922264,-975753,164342798,-52191,-244196,33849,61,f5a3fe00,0.0,0.0,0.0,0.0,0.0,0.0
2026-05-25 09:17:28.018069,1779715048.018069,1922264,-975753,164342798,-52191,-244196,33849,61,f5a3fe00,0.0,0.0,0.0,0.0,0.0,0.0
2026-05-25 09:17:28.033617,1779715048.033617,2376273,-1201924,164382660,110353,382103,59208,61,f5a0fe00,0.0,0.0,0.0,0.0,0.0,0.0
2026-05-25 09:17:28.050995,1779715048.050995,2376273,-1201924,164382660,110353,382103,59208,61,f5a0fe00,0.0,0.0,0.0,0.0,0.0,0.0
2026-05-25 09:17:28.062282,1779715048.062282,3469177,-944379,165211520,135676,855672,-13252,61,f59cfe00,0.0,0.0,0.0,0.0,0.0,0.0
2026-05-25 09:17:28.072709,1779715048.072709,3469177,-944379,165211520,135676,855672,-13252,61,f59cfe00,0.0,0.0,0.0,0.0,0.0,0.0
2026-05-25 09:17:28.083608,1779715048.083608,2123255,-1473029,164220606,-47934,-66911,33659,61,f598fe00,0.0,0.0,0.0,0.0,0.0,0.0
2026-05-25 09:17:28.097218,1779715048.097218,2123255,-1473029,164220606,-47934,-66911,33659,61,f598fe00,0.0,0.0,0.0,0.0,0.0,0.0
2026-05-25 09:17:28.106496,1779715048.106496,2064699,-1251879,164205255,104154,152168,31814,61,f594fe00,0.0,0.0,0.0,0.0,0.0,0.0
2026-05-25 09:17:28.125262,1779715048.125262,2064699,-1251879,164205255,104154,152168,31814,61,f594fe00,0.0,0.0,0.0,0.0,0.0,0.0
2026-05-25 09:17:28.139109,1779715048.139109,1870471,-1486205,164149091,9479,17981,-3784,61,f590fe00,0.0,0.0,0.0,0.0,0.0,0.0
2026-05-25 09:17:28.156626,1779715048.156626,1870471,-1486205,164149091,9479,17981,-3784,61,f590fe00,0.0,0.0,0.0,0.0,0.0,0.0
2026-05-25 09:17:28.170680,1779715048.170680,2144735,-1381391,164414486,-30229,-157173,12043,61,f58dfe00,0.0,0.0,0.0,0.0,0.0,0.0
2026-05-25 09:17:28.188848,1779715048.188848,2144735,-1381391,164414486,-30229,-157173,12043,61,f58dfe00,0.0,0.0,0.0,0.0,0.0,0.0
2026-05-25 09:17:28.202825,1779715048.202825,2302421,-1350944,164364556,21541,-100254,5645,61,f589fe00,0.0,0.0,0.0,0.0,0.0,0.0
2026-05-25 09:17:28.220325,1779715048.220325,2302421,-1350944,164364556,21541,-100254,5645,61,f589fe00,0.0,0.0,0.0,0.0,0.0,0.0
2026-05-25 09:17:28.241501,1779715048.241501,2302421,-1350944,164364556,21541,-100254,5645,61,f589fe00,0.0,0.0,0.0,0.0,0.0,0.0
2026-05-25 09:17:28.252022,1779715048.252022,2539108,-1009524,164576914,-29482,-110369,2483,61,f584fe00,0.0,0.0,0.0,0.0,0.0,0.0
2026-05-25 09:17:28.266247,1779715048.266247,2397294,-1352288,164436006,-65512,-35797,39105,61,f581fe00,0.0,0.0,0.0,0.0,0.0,0.0
2026-05-25 09:17:28.283790,1779715048.283790,2397294,-1352288,164436006,-65512,-35797,39105,61,f581fe00,0.0,0.0,0.0,0.0,0.0,0.0
2026-05-25 09:17:28.298343,1779715048.298343,2467149,-1333750,164497613,-72127,46437,37046,61,f57efe00,0.0,0.0,0.0,0.0,0.0,0.0
2026-05-25 09:17:28.316550,1779715048.316550,2467149,-1333750,164497613,-72127,46437,37046,61,f57efe00,0.0,0.0,0.0,0.0,0.0,0.0
2026-05-25 09:17:28.331556,1779715048.331556,1465826,-1225637,163592972,-359892,-347573,72128,61,f57afe00,0.0,0.0,0.0,0.0,0.0,0.0
2026-05-25 09:17:28.343747,1779715048.343747,1465826,-1225637,163592972,-359892,-347573,72128,61,f57afe00,0.0,0.0,0.0,0.0,0.0,0.0
2026-05-25 09:17:28.351334,1779715048.351334,2495814,-1295625,164722723,43588,103452,32967,61,f576fe00,0.0,0.0,0.0,0.0,0.0,0.0
2026-05-25 09:17:28.365267,1779715048.365267,2495814,-1295625,164722723,43588,103452,32967,61,f576fe00,0.0,0.0,0.0,0.0,0.0,0.0
2026-05-25 09:17:28.379280,1779715048.379280,2382651,-1138555,164444931,-56963,-248570,11369,61,f573fe00,0.0,0.0,0.0,0.0,0.0,0.0
2026-05-25 09:17:28.389508,1779715048.389508,2382651,-1138555,164444931,-56963,-248570,11369,61,f573fe00,0.0,0.0,0.0,0.0,0.0,0.0
2026-05-25 09:17:28.399302,1779715048.399302,1201218,-973525,163694821,-147144,51184,49094,61,f56ffe00,0.0,0.0,0.0,0.0,0.0,0.0
2026-05-25 09:17:28.413082,1779715048.413082,1201218,-973525,163694821,-147144,51184,49094,61,f56ffe00,0.0,0.0,0.0,0.0,0.0,0.0
2026-05-25 09:17:28.425919,1779715048.425919,2332760,-1279128,164366865,-19373,-29490,32926,61,f56bfe00,0.0,0.0,0.0,0.0,0.0,0.0
2026-05-25 09:17:28.437782,1779715048.437782,2332760,-1279128,164366865,-19373,-29490,32926,61,f56bfe00,0.0,0.0,0.0,0.0,0.0,0.0
2026-05-25 09:17:28.446391,1779715048.446391,2369950,-1294740,164405500,-10383,-24017,8598,61,f567fe00,0.0,0.0,0.0,0.0,0.0,0.0
2026-05-25 09:17:28.456103,1779715048.456103,2369950,-1294740,164405500,-10383,-24017,8598,61,f567fe00,0.0,0.0,0.0,0.0,0.0,0.0
2026-05-25 09:17:28.471715,1779715048.471715,2196357,-1250836,164369081,-10755,37094,33459,61,f564fe00,0.0,0.0,0.0,0.0,0.0,0.0
2026-05-25 09:17:28.488940,1779715048.488940,2196357,-1250836,164369081,-10755,37094,33459,61,f564fe00,0.0,0.0,0.0,0.0,0.0,0.0
2026-05-25 09:17:28.497950,1779715048.497950,2304911,-1070827,164414495,-25772,164871,59953,61,f560fe00,0.0,0.0,0.0,0.0,0.0,0.0
2026-05-25 09:17:28.506905,1779715048.506905,2304911,-1070827,164414495,-25772,164871,59953,61,f560fe00,0.0,0.0,0.0,0.0,0.0,0.0
2026-05-25 09:17:28.521240,1779715048.521240,2207961,-1291502,164283624,-10048,-3571,29358,61,f55cfe00,0.0,0.0,0.0,0.0,0.0,0.0
2026-05-25 09:17:28.540115,1779715048.540115,2207961,-1291502,164283624,-10048,-3571,29358,61,f55cfe00,0.0,0.0,0.0,0.0,0.0,0.0
2026-05-25 09:17:28.555056,1779715048.555056,2361551,-1230557,164390029,21150,14101,48208,61,f559fe00,0.0,0.0,0.0,0.0,0.0,0.0
2026-05-25 09:17:28.573143,1779715048.573143,2361551,-1230557,164390029,21150,14101,48208,61,f559fe00,0.0,0.0,0.0,0.0,0.0,0.0
2026-05-25 09:17:28.588015,1779715048.588015,1898657,-1237374,164179930,-32348,97031,29813,61,f555fe00,0.0,0.0,0.0,0.0,0.0,0.0
2026-05-25 09:17:28.606598,1779715048.606598,1898657,-1237374,164179930,-32348,97031,29813,61,f555fe00,0.0,0.0,0.0,0.0,0.0,0.0
2026-05-25 09:17:28.621383,1779715048.621383,2101264,-1402483,164156232,-31658,68863,261,61,f551fe00,0.0,0.0,0.0,0.0,0.0,0.0
2026-05-25 09:17:28.639744,1779715048.639744,2101264,-1402483,164156232,-31658,68863,261,61,f551fe00,0.0,0.0,0.0,0.0,0.0,0.0
2026-05-25 09:17:28.653941,1779715048.653941,2431648,-948127,164487456,-24158,-35397,23781,61,f54dfe00,0.0,0.0,0.0,0.0,0.0,0.0
2026-05-25 09:17:28.672831,1779715048.672831,2431648,-948127,164487456,-24158,-35397,23781,61,f54dfe00,0.0,0.0,0.0,0.0,0.0,0.0
2026-05-25 09:17:28.688336,1779715048.688336,2357215,-1245081,164392190,3127,-33259,38799,61,f54afe00,0.0,0.0,0.0,0.0,0.0,0.0
2026-05-25 09:17:28.706095,1779715048.706095,2357215,-1245081,164392190,3127,-33259,38799,61,f54afe00,0.0,0.0,0.0,0.0,0.0,0.0
2026-05-25 09:17:28.715671,1779715048.715671,2029511,-1448098,164220151,-7807,139418,40108,61,f546fe00,0.0,0.0,0.0,0.0,0.0,0.0
2026-05-25 09:17:28.726179,1779715048.726179,2029511,-1448098,164220151,-7807,139418,40108,61,f546fe00,0.0,0.0,0.0,0.0,0.0,0.0
2026-05-25 09:17:28.733986,1779715048.733986,1960891,-1171220,164125958,67629,-42963,-3274,61,f542fe00,0.0,0.0,0.0,0.0,0.0,0.0
2026-05-25 09:17:28.744186,1779715048.744186,1960891,-1171220,164125958,67629,-42963,-3274,61,f542fe00,0.0,0.0,0.0,0.0,0.0,0.0
2026-05-25 09:17:28.751408,1779715048.751408,2472526,-1412084,164566025,-84143,-5979,85965,61,f53ffe00,0.0,0.0,0.0,0.0,0.0,0.0
2026-05-25 09:17:28.760819,1779715048.760819,2472526,-1412084,164566025,-84143,-5979,85965,61,f53ffe00,0.0,0.0,0.0,0.0,0.0,0.0
2026-05-25 09:17:28.767858,1779715048.767858,2129888,-1191527,164771077,-175258,-649730,-91357,61,f53bfe00,0.0,0.0,0.0,0.0,0.0,0.0
2026-05-25 09:17:28.776824,1779715048.776824,2129888,-1191527,164771077,-175258,-649730,-91357,61,f53bfe00,0.0,0.0,0.0,0.0,0.0,0.0
2026-05-25 09:17:28.788897,1779715048.788897,2184349,-1269218,164318685,-36141,-66190,22990,61,f538fe00,0.0,0.0,0.0,0.0,0.0,0.0
2026-05-25 09:17:28.798245,1779715048.798245,2184349,-1269218,164318685,-36141,-66190,22990,61,f538fe00,0.0,0.0,0.0,0.0,0.0,0.0
2026-05-25 09:17:28.806254,1779715048.806254,2099622,-1191502,164286143,-5733,5726,31891,61,f534fe00,0.0,0.0,0.0,0.0,0.0,0.0
2026-05-25 09:17:28.815744,1779715048.815744,2099622,-1191502,164286143,-5733,5726,31891,61,f534fe00,0.0,0.0,0.0,0.0,0.0,0.0
2026-05-25 09:17:28.823488,1779715048.823488,2233741,-1294483,164396090,6377,-93148,23370,61,f531fe00,0.0,0.0,0.0,0.0,0.0,0.0
2026-05-25 09:17:28.833276,1779715048.833276,2233741,-1294483,164396090,6377,-93148,23370,61,f531fe00,0.0,0.0,0.0,0.0,0.0,0.0
2026-05-25 09:17:28.841120,1779715048.841120,2247931,-1308919,164371388,60,-21570,19716,61,f52dfe00,0.0,0.0,0.0,0.0,0.0,0.0
2026-05-25 09:17:28.850365,1779715048.850365,2247931,-1308919,164371388,60,-21570,19716,61,f52dfe00,0.0,0.0,0.0,0.0,0.0,0.0
2026-05-25 09:17:28.862417,1779715048.862417,2197824,-1227353,164347702,-11800,-18761,31383,61,f529fe00,0.0,0.0,0.0,0.0,0.0,0.0
2026-05-25 09:17:28.873275,1779715048.873275,2197824,-1227353,164347702,-11800,-18761,31383,61,f529fe00,0.0,0.0,0.0,0.0,0.0,0.0
2026-05-25 09:17:28.880216,1779715048.880216,2132526,-1227149,164340745,16496,-2537,27055,61,f526fe00,0.0,0.0,0.0,0.0,0.0,0.0
2026-05-25 09:17:28.889659,1779715048.889659,2132526,-1227149,164340745,16496,-2537,27055,61,f526fe00,0.0,0.0,0.0,0.0,0.0,0.0
2026-05-25 09:17:28.905619,1779715048.905619,2197088,-1280122,164387191,-11344,-82377,48826,61,f522fe00,0.0,0.0,0.0,0.0,0.0,0.0
2026-05-25 09:17:28.922764,1779715048.922764,2197088,-1280122,164387191,-11344,-82377,48826,61,f522fe00,0.0,0.0,0.0,0.0,0.0,0.0
2026-05-25 09:17:28.937423,1779715048.937423,2277285,-1297671,164345594,6918,28366,57147,61,f51ffe00,0.0,0.0,0.0,0.0,0.0,0.0
2026-05-25 09:17:28.946338,1779715048.946338,2277285,-1297671,164345594,6918,28366,57147,61,f51ffe00,0.0,0.0,0.0,0.0,0.0,0.0
2026-05-25 09:17:28.954984,1779715048.954984,2661954,-1368316,164920798,57384,222161,41604,61,f51bfe00,0.0,0.0,0.0,0.0,0.0,0.0
2026-05-25 09:17:28.965129,1779715048.965129,2661954,-1368316,164920798,57384,222161,41604,61,f51bfe00,0.0,0.0,0.0,0.0,0.0,0.0
2026-05-25 09:17:28.973141,1779715048.973141,2290445,-1160292,164360298,1961,118565,48377,61,f518fe00,0.0,0.0,0.0,0.0,0.0,0.0
2026-05-25 09:17:28.983692,1779715048.983692,2290445,-1160292,164360298,1961,118565,48377,61,f518fe00,0.0,0.0,0.0,0.0,0.0,0.0
2026-05-25 09:17:28.996645,1779715048.996645,1696469,-635925,164182246,4948,-184879,17035,61,f514fe00,0.0,0.0,0.0,0.0,0.0,0.0
2026-05-25 09:17:29.006439,1779715049.006439,1696469,-635925,164182246,4948,-184879,17035,61,f514fe00,0.0,0.0,0.0,0.0,0.0,0.0
2026-05-25 09:17:29.013444,1779715049.013444,1897162,-1069419,163995780,-111455,-91787,29556,61,f510fe00,0.0,0.0,0.0,0.0,0.0,0.0
2026-05-25 09:17:29.022240,1779715049.022240,1897162,-1069419,163995780,-111455,-91787,29556,61,f510fe00,0.0,0.0,0.0,0.0,0.0,0.0
2026-05-25 09:17:29.029445,1779715049.029445,2752173,-1344792,164786619,95550,79597,3067,61,f50dfe00,0.0,0.0,0.0,0.0,0.0,0.0
2026-05-25 09:17:29.038262,1779715049.038262,2752173,-1344792,164786619,95550,79597,3067,61,f50dfe00,0.0,0.0,0.0,0.0,0.0,0.0
2026-05-25 09:17:29.045711,1779715049.045711,2139375,-1540922,164314359,-72680,-187422,-23182,61,f509fe00,0.0,0.0,0.0,0.0,0.0,0.0
2026-05-25 09:17:29.060175,1779715049.060175,2139375,-1540922,164314359,-72680,-187422,-23182,61,f509fe00,0.0,0.0,0.0,0.0,0.0,0.0
2026-05-25 09:17:29.068080,1779715049.068080,1338521,-700107,164196912,81635,264187,152171,61,f505fe00,0.0,0.0,0.0,0.0,0.0,0.0
2026-05-25 09:17:29.078557,1779715049.078557,1338521,-700107,164196912,81635,264187,152171,61,f505fe00,0.0,0.0,0.0,0.0,0.0,0.0
2026-05-25 09:17:29.095025,1779715049.095025,3445818,-1075980,165147415,-70886,-153706,42604,61,f503fe00,0.0,0.0,0.0,0.0,0.0,0.0
2026-05-25 09:17:29.113140,1779715049.113140,3445818,-1075980,165147415,-70886,-153706,42604,61,f503fe00,0.0,0.0,0.0,0.0,0.0,0.0
2026-05-25 09:17:29.201393,1779715049.201393,2427260,-1253495,164538055,-84735,75870,34227,61,f4fafe00,0.0,0.0,0.0,0.0,0.0,0.0
2026-05-25 09:17:29.237645,1779715049.237645,2427260,-1253495,164538055,-84735,75870,34227,61,f4fafe00,0.0,0.0,0.0,0.0,0.0,0.0
2026-05-25 09:17:29.264282,1779715049.264282,2149112,-1184252,164344163,62708,-12292,-669,61,f4ecfe00,0.0,0.0,0.0,0.0,0.0,0.0
2026-05-25 09:17:29.273951,1779715049.273951,2149112,-1184252,164344163,62708,-12292,-669,61,f4ecfe00,0.0,0.0,0.0,0.0,0.0,0.0
2026-05-25 09:17:29.472118,1779715049.472118,2258886,-1233324,164409657,16518,-138651,10948,61,f4e2fe00,0.0,0.0,0.0,0.0,0.0,0.0
2026-05-25 09:17:29.481557,1779715049.481557,2258886,-1233324,164409657,16518,-138651,10948,61,f4e2fe00,0.0,0.0,0.0,0.0,0.0,0.0
2026-05-25 09:17:29.490865,1779715049.490865,2194043,-1244570,164348244,34461,259087,82287,61,f4ddfe00,0.0,0.0,0.0,0.0,0.0,0.0
2026-05-25 09:17:29.501427,1779715049.501427,2194043,-1244570,164348244,34461,259087,82287,61,f4ddfe00,0.0,0.0,0.0,0.0,0.0,0.0
2026-05-25 09:17:29.508361,1779715049.508361,2334221,-1376280,164480668,7765,-24907,9211,61,f4d9fe00,0.0,0.0,0.0,0.0,0.0,0.0
2026-05-25 09:17:29.516732,1779715049.516732,2334221,-1376280,164480668,7765,-24907,9211,61,f4d9fe00,0.0,0.0,0.0,0.0,0.0,0.0
2026-05-25 09:17:29.523448,1779715049.523448,2381140,-1342266,164474952,-25772,-35148,21865,61,f4d5fe00,0.0,0.0,0.0,0.0,0.0,0.0
2026-05-25 09:17:29.534874,1779715049.534874,2381140,-1342266,164474952,-25772,-35148,21865,61,f4d5fe00,0.0,0.0,0.0,0.0,0.0,0.0
2026-05-25 09:17:29.542549,1779715049.542549,2588634,-753044,164603147,82492,117075,62980,61,f4d2fe00,0.0,0.0,0.0,0.0,0.0,0.0
2026-05-25 09:17:29.551626,1779715049.551626,2588634,-753044,164603147,82492,117075,62980,61,f4d2fe00,0.0,0.0,0.0,0.0,0.0,0.0
2026-05-25 09:17:29.558708,1779715049.558708,2751054,-1773303,164798701,43246,643748,42827,61,f4cefe00,0.0,0.0,0.0,0.0,0.0,0.0
2026-05-25 09:17:29.568510,1779715049.568510,2751054,-1773303,164798701,43246,643748,42827,61,f4cefe00,0.0,0.0,0.0,0.0,0.0,0.0
2026-05-25 09:17:29.575290,1779715049.575290,2120866,-1310659,164266878,51899,-174023,5014,61,f4cafe00,0.0,0.0,0.0,0.0,0.0,0.0
2026-05-25 09:17:29.583502,1779715049.583502,2120866,-1310659,164266878,51899,-174023,5014,61,f4cafe00,0.0,0.0,0.0,0.0,0.0,0.0
2026-05-25 09:17:29.590829,1779715049.590829,2472471,-1255351,164236319,-113421,169686,46614,61,f4c6fe00,0.0,0.0,0.0,0.0,0.0,0.0
2026-05-25 09:17:29.600390,1779715049.600390,2472471,-1255351,164236319,-113421,169686,46614,61,f4c6fe00,0.0,0.0,0.0,0.0,0.0,0.0
2026-05-25 09:17:29.614712,1779715049.614712,2041643,-1992050,164309066,78879,317345,51730,61,f4c2fe00,0.0,0.0,0.0,0.0,0.0,0.0
2026-05-25 09:17:29.632174,1779715049.632174,2041643,-1992050,164309066,78879,317345,51730,61,f4c2fe00,0.0,0.0,0.0,0.0,0.0,0.0
2026-05-25 09:17:29.641546,1779715049.641546,2154287,-1142518,164328658,-5004,84262,14495,61,f4bffe00,0.0,0.0,0.0,0.0,0.0,0.0
2026-05-25 09:17:29.660258,1779715049.660258,2154287,-1142518,164328658,-5004,84262,14495,61,f4bffe00,0.0,0.0,0.0,0.0,0.0,0.0
2026-05-25 09:17:29.698591,1779715049.698591,2284823,-1245214,164345952,3018,59546,56132,61,f4a6fe00,0.0,0.0,0.0,0.0,0.0,0.0
2026-05-25 09:17:29.733533,1779715049.733533,1849394,-1343900,164159559,-21137,36531,21671,61,f494fe00,0.0,0.0,0.0,0.0,0.0,0.0
2026-05-25 09:17:29.747227,1779715049.747227,2500352,-1091382,164600780,10421,32407,38505,61,f48dfe00,0.0,0.0,0.0,0.0,0.0,0.0
2026-05-25 09:17:29.753365,1779715049.753365,2252664,-1185682,164431092,-9935,-74246,15441,61,f48dfe00,0.0,0.0,0.0,0.0,0.0,0.0
2026-05-25 09:17:29.761131,1779715049.761131,2413008,-1079527,164434473,-21163,-232091,56362,61,f48bfe00,0.0,0.0,0.0,0.0,0.0,0.0
2026-05-25 09:17:29.767283,1779715049.767283,2982449,-1223499,164602542,25050,77318,-6,61,f489fe00,0.0,0.0,0.0,0.0,0.0,0.0
2026-05-25 09:17:29.774430,1779715049.774430,2358466,-1372464,164401568,32673,-67467,-2789,61,f487fe00,0.0,0.0,0.0,0.0,0.0,0.0
2026-05-25 09:17:29.779454,1779715049.779454,2121841,-1127101,164321245,-21990,-32233,37171,61,f486fe00,0.0,0.0,0.0,0.0,0.0,0.0
2026-05-25 09:17:29.786447,1779715049.786447,2189609,-1339883,164302921,16306,619,17201,61,f483fe00,0.0,0.0,0.0,0.0,0.0,0.0
2026-05-25 09:17:29.791358,1779715049.791358,2649821,-1274981,164612636,-22935,56650,31056,61,f482fe00,0.0,0.0,0.0,0.0,0.0,0.0
2026-05-25 09:17:29.799939,1779715049.799939,2730612,-1432641,164544446,75026,101811,13380,61,f480fe00,0.0,0.0,0.0,0.0,0.0,0.0
2026-05-25 09:17:29.810095,1779715049.810095,2366382,-1362114,164520866,-42821,-98042,14114,61,f47ffe00,0.0,0.0,0.0,0.0,0.0,0.0
2026-05-25 09:17:29.820756,1779715049.820756,2343331,-1295600,164421300,-47657,-48848,17325,61,f47efe00,0.0,0.0,0.0,0.0,0.0,0.0
2026-05-25 09:17:29.834738,1779715049.834738,2206868,-1196121,164345193,-19732,29815,66259,61,f47bfe00,0.0,0.0,0.0,0.0,0.0,0.0
2026-05-25 09:17:29.840745,1779715049.840745,2294280,-1271629,164594356,-9409,-250027,8432,61,f47afe00,0.0,0.0,0.0,0.0,0.0,0.0
2026-05-25 09:17:29.854566,1779715049.854566,2334115,-1308826,164346813,-19915,-9338,29408,61,f478fe00,0.0,0.0,0.0,0.0,0.0,0.0
2026-05-25 09:17:29.865174,1779715049.865174,2219490,-1282011,164355219,5617,-31423,14983,61,f477fe00,0.0,0.0,0.0,0.0,0.0,0.0
2026-05-25 09:17:29.880089,1779715049.880089,2027527,-1284546,164201966,7405,-21444,22951,61,f475fe00,0.0,0.0,0.0,0.0,0.0,0.0
2026-05-25 09:17:29.887786,1779715049.887786,2036612,-1561536,164250282,-15868,5959,74266,61,f474fe00,0.0,0.0,0.0,0.0,0.0,0.0
2026-05-25 09:17:29.902085,1779715049.902085,2298568,-1297751,164337449,-5364,-114382,6476,61,f472fe00,0.0,0.0,0.0,0.0,0.0,0.0
2026-05-25 09:17:29.910466,1779715049.910466,2377721,-1253911,164386519,-15897,17502,29230,61,f470fe00,0.0,0.0,0.0,0.0,0.0,0.0
2026-05-25 09:17:29.917393,1779715049.917393,2445623,-1287242,164458064,19627,16260,45557,61,f46efe00,0.0,0.0,0.0,0.0,0.0,0.0
2026-05-25 09:17:29.923122,1779715049.923122,2082359,-1387499,164272160,-62641,-98605,39191,61,f46dfe00,0.0,0.0,0.0,0.0,0.0,0.0
2026-05-25 09:17:29.929360,1779715049.929360,2092028,-1137956,164314708,34118,162365,42487,61,f46cfe00,0.0,0.0,0.0,0.0,0.0,0.0
2026-05-25 09:17:29.938418,1779715049.938418,2308464,-1283851,164390039,21503,182519,45548,61,f46afe00,0.0,0.0,0.0,0.0,0.0,0.0
2026-05-25 09:17:29.944566,1779715049.944566,2260447,-1329407,164447364,-8030,-22812,49020,61,f468fe00,0.0,0.0,0.0,0.0,0.0,0.0
2026-05-25 09:17:29.952543,1779715049.952543,2187199,-1259459,164370628,14565,-5532,16619,61,f466fe00,0.0,0.0,0.0,0.0,0.0,0.0
2026-05-25 09:17:29.958653,1779715049.958653,2175275,-1286624,164347811,-20120,-41351,34312,61,f465fe00,0.0,0.0,0.0,0.0,0.0,0.0
2026-05-25 09:17:29.963530,1779715049.963530,1528780,-1658779,163867193,67077,227538,97692,61,f464fe00,0.0,0.0,0.0,0.0,0.0,0.0
2026-05-25 09:17:29.977012,1779715049.977012,2243203,-1079549,164426579,-63634,-118727,23954,61,f462fe00,0.0,0.0,0.0,0.0,0.0,0.0
2026-05-25 09:17:29.987011,1779715049.987011,3717827,-1204212,165339561,23689,312604,70021,61,f461fe00,0.0,0.0,0.0,0.0,0.0,0.0
2026-05-25 09:17:30.000313,1779715050.000313,2196739,-1010093,164207268,-16748,217821,56907,61,f45ffe00,0.0,0.0,0.0,0.0,0.0,0.0
2026-05-25 09:17:30.010341,1779715050.010341,1991523,-1247365,164143414,-14484,-38001,-15735,61,f45efe00,0.0,0.0,0.0,0.0,0.0,0.0
2026-05-25 09:17:30.020502,1779715050.020502,2320065,-1266343,164386175,-31573,-136100,3846,61,f45dfe00,0.0,0.0,0.0,0.0,0.0,0.0
2026-05-25 09:17:30.034456,1779715050.034456,1951110,-1505412,164091954,59360,412453,69605,61,f45bfe00,0.0,0.0,0.0,0.0,0.0,0.0
2026-05-25 09:17:30.044172,1779715050.044172,1604457,-1787500,163894333,-87083,-443980,86677,61,f459fe00,0.0,0.0,0.0,0.0,0.0,0.0
2026-05-25 09:17:30.058145,1779715050.058145,2091326,-1441328,164268874,292611,1200741,136462,61,f457fe00,0.0,0.0,0.0,0.0,0.0,0.0
2026-05-25 09:17:30.067968,1779715050.067968,2249323,-1160740,164387204,-41114,-85292,29278,61,f456fe00,0.0,0.0,0.0,0.0,0.0,0.0
2026-05-25 09:17:30.075752,1779715050.075752,1916789,-1445699,164174205,115462,-121297,20289,61,f454fe00,0.0,0.0,0.0,0.0,0.0,0.0
2026-05-25 09:17:30.086039,1779715050.086039,1542393,-1367208,163907960,-69582,-135998,12162,61,f453fe00,0.0,0.0,0.0,0.0,0.0,0.0
2026-05-25 09:17:30.100612,1779715050.100612,2136432,-1279826,164280701,71167,23708,48204,61,f451fe00,0.0,0.0,0.0,0.0,0.0,0.0
2026-05-25 09:17:30.111665,1779715050.111665,2194168,-1277776,164285169,-69613,-43238,16167,61,f450fe00,0.0,0.0,0.0,0.0,0.0,0.0
2026-05-25 09:17:30.119646,1779715050.119646,2192392,-1356921,164340178,46193,30333,9192,61,f44dfe00,0.0,0.0,0.0,0.0,0.0,0.0
2026-05-25 09:17:30.125633,1779715050.125633,2198613,-1237009,164379489,-23933,67358,42738,61,f44dfe00,0.0,0.0,0.0,0.0,0.0,0.0
2026-05-25 09:17:30.131507,1779715050.131507,2166858,-1243356,164322210,-9248,-116260,41840,61,f44bfe00,0.0,0.0,0.0,0.0,0.0,0.0
2026-05-25 09:17:30.139047,1779715050.139047,1925918,-1090811,164237969,-26287,-224630,18307,61,f449fe00,0.0,0.0,0.0,0.0,0.0,0.0
2026-05-25 09:17:30.145028,1779715050.145028,2201681,-1295822,164277779,-23357,-105215,28112,61,f448fe00,0.0,0.0,0.0,0.0,0.0,0.0
2026-05-25 09:17:30.158245,1779715050.158245,2249986,-1207515,164456728,-44674,-96125,36516,61,f446fe00,0.0,0.0,0.0,0.0,0.0,0.0
2026-05-25 09:17:30.164449,1779715050.164449,2127058,-1383545,164305809,12812,-17681,6465,61,f445fe00,0.0,0.0,0.0,0.0,0.0,0.0
2026-05-25 09:17:30.172922,1779715050.172922,1976186,-1157571,164576063,47055,380811,-30227,61,f443fe00,0.0,0.0,0.0,0.0,0.0,0.0
2026-05-25 09:17:30.178835,1779715050.178835,2006500,-1263000,164330463,-20819,-85602,18433,61,f442fe00,0.0,0.0,0.0,0.0,0.0,0.0
2026-05-25 09:17:30.187758,1779715050.187758,2005071,-1261977,164139133,-46776,-509132,-107019,61,f43ffe00,0.0,0.0,0.0,0.0,0.0,0.0
2026-05-25 09:17:30.193537,1779715050.193537,2223594,-1244341,164357199,-87736,-227337,24921,61,f43efe00,0.0,0.0,0.0,0.0,0.0,0.0
2026-05-25 09:17:30.207370,1779715050.207370,2172798,-1087023,164561361,63969,186349,109964,61,f43cfe00,0.0,0.0,0.0,0.0,0.0,0.0
2026-05-25 09:17:30.218716,1779715050.218716,2321438,-1663671,164378948,49356,238442,114094,61,f43cfe00,0.0,0.0,0.0,0.0,0.0,0.0
2026-05-25 09:17:30.233628,1779715050.233628,2305915,-1112909,164339196,-59341,-76322,-22395,61,f43afe00,0.0,0.0,0.0,0.0,0.0,0.0
2026-05-25 09:17:30.244103,1779715050.244103,2149736,-1730531,164384945,15264,-107642,-11459,61,f438fe00,0.0,0.0,0.0,0.0,0.0,0.0
2026-05-25 09:17:30.253701,1779715050.253701,2166351,-1375035,164465278,73134,202384,18449,61,f438fe00,0.0,0.0,0.0,0.0,0.0,0.0
2026-05-25 09:17:30.260608,1779715050.260608,2379682,-1137391,164530069,-142502,-136444,45598,61,f435fe00,0.0,0.0,0.0,0.0,0.0,0.0
2026-05-25 09:17:30.270172,1779715050.270172,2008727,-1800210,163759878,-8284,157296,25599,61,f432fe00,0.0,0.0,0.0,0.0,0.0,0.0
2026-05-25 09:17:30.281308,1779715050.281308,1997018,-1468651,164094065,-50668,120244,36881,61,f431fe00,0.0,0.0,0.0,0.0,0.0,0.0
2026-05-25 09:17:30.296397,1779715050.296397,1821450,-1424673,164396937,160507,81701,-51315,61,f42efe00,0.0,0.0,0.0,0.0,0.0,0.0
2026-05-25 09:17:30.307905,1779715050.307905,2159144,-1314382,164374349,-56855,-142711,87076,61,f42efe00,0.0,0.0,0.0,0.0,0.0,0.0
2026-05-25 09:17:30.323452,1779715050.323452,1865205,-1197922,164158169,-9859,20276,23854,61,f42cfe00,0.0,0.0,0.0,0.0,0.0,0.0
2026-05-25 09:17:30.333885,1779715050.333885,2298461,-1316073,164371860,-7464,-96284,23514,61,f42bfe00,0.0,0.0,0.0,0.0,0.0,0.0
2026-05-25 09:17:30.357927,1779715050.357927,2034326,-1283161,164200750,2895,158367,93910,61,f429fe00,0.0,0.0,0.0,0.0,0.0,0.0
2026-05-25 09:17:30.368562,1779715050.368562,2034326,-1283161,164200750,2895,158367,93910,61,f429fe00,0.0,0.0,0.0,0.0,0.0,0.0
2026-05-25 09:17:30.384189,1779715050.384189,2161126,-1659391,164347554,191125,467353,53918,61,f426fe00,0.0,0.0,0.0,0.0,0.0,0.0
2026-05-25 09:17:30.399143,1779715050.399143,2161126,-1659391,164347554,191125,467353,53918,61,f426fe00,0.0,0.0,0.0,0.0,0.0,0.0
2026-05-25 09:17:30.413605,1779715050.413605,3090956,-1459324,165124479,-47462,-190725,47499,61,f423fe00,0.0,0.0,0.0,0.0,0.0,0.0
2026-05-25 09:17:30.423799,1779715050.423799,3090956,-1459324,165124479,-47462,-190725,47499,61,f423fe00,0.0,0.0,0.0,0.0,0.0,0.0
2026-05-25 09:17:30.438867,1779715050.438867,2209604,-1234197,164483235,64142,43317,38807,61,f41ffe00,0.0,0.0,0.0,0.0,0.0,0.0
2026-05-25 09:17:30.447802,1779715050.447802,2209604,-1234197,164483235,64142,43317,38807,61,f41ffe00,0.0,0.0,0.0,0.0,0.0,0.0
2026-05-25 09:17:30.461284,1779715050.461284,2132564,-1678216,164398516,-92409,-268980,21910,61,f41dfe00,0.0,0.0,0.0,0.0,0.0,0.0
2026-05-25 09:17:30.473538,1779715050.473538,1720535,-1221337,163977979,16970,138040,21766,61,f41afe00,0.0,0.0,0.0,0.0,0.0,0.0
2026-05-25 09:17:30.482728,1779715050.482728,1720535,-1221337,163977979,16970,138040,21766,61,f41afe00,0.0,0.0,0.0,0.0,0.0,0.0
2026-05-25 09:17:30.496874,1779715050.496874,1947546,-1059910,164192244,-99685,-360086,-44635,61,f417fe00,0.0,0.0,0.0,0.0,0.0,0.0
2026-05-25 09:17:30.515443,1779715050.515443,1947546,-1059910,164192244,-99685,-360086,-44635,61,f417fe00,0.0,0.0,0.0,0.0,0.0,0.0
2026-05-25 09:17:30.529663,1779715050.529663,2255162,-1295525,164124749,-67189,-341325,-70944,61,f413fe00,0.0,0.0,0.0,0.0,0.0,0.0
2026-05-25 09:17:30.546611,1779715050.546611,2255162,-1295525,164124749,-67189,-341325,-70944,61,f413fe00,0.0,0.0,0.0,0.0,0.0,0.0
2026-05-25 09:17:30.567334,1779715050.567334,2255162,-1295525,164124749,-67189,-341325,-70944,61,f413fe00,0.0,0.0,0.0,0.0,0.0,0.0
2026-05-25 09:17:30.574273,1779715050.574273,2684553,-1228231,164688083,64586,284298,58486,61,f410fe00,0.0,0.0,0.0,0.0,0.0,0.0
2026-05-25 09:17:30.585540,1779715050.585540,2602876,-1416973,164450666,47166,508444,45392,61,f40cfe00,0.0,0.0,0.0,0.0,0.0,0.0
2026-05-25 09:17:30.599029,1779715050.599029,2104700,-1360002,164253979,-2318,-2177,-7430,61,f40afe00,0.0,0.0,0.0,0.0,0.0,0.0
2026-05-25 09:17:30.615351,1779715050.615351,2104700,-1360002,164253979,-2318,-2177,-7430,61,f40afe00,0.0,0.0,0.0,0.0,0.0,0.0
2026-05-25 09:17:30.635615,1779715050.635615,2104700,-1360002,164253979,-2318,-2177,-7430,61,f40afe00,0.0,0.0,0.0,0.0,0.0,0.0
2026-05-25 09:17:30.642398,1779715050.642398,1925212,-1226848,164212005,-17370,565,-19757,61,f406fe00,0.0,0.0,0.0,0.0,0.0,0.0
2026-05-25 09:17:30.649093,1779715050.649093,2168629,-1344014,164303292,-78756,-4496,27209,61,f404fe00,0.0,0.0,0.0,0.0,0.0,0.0
2026-05-25 09:17:30.658239,1779715050.658239,2168629,-1344014,164303292,-78756,-4496,27209,61,f404fe00,0.0,0.0,0.0,0.0,0.0,0.0
2026-05-25 09:17:30.665312,1779715050.665312,2028592,-1265697,164403440,-32616,-157496,-5404,61,f401fe00,0.0,0.0,0.0,0.0,0.0,0.0
2026-05-25 09:17:30.674352,1779715050.674352,2028592,-1265697,164403440,-32616,-157496,-5404,61,f401fe00,0.0,0.0,0.0,0.0,0.0,0.0
2026-05-25 09:17:30.681898,1779715050.681898,2331288,-1265593,164661387,-150784,-403483,52181,61,f3fefe00,0.0,0.0,0.0,0.0,0.0,0.0
2026-05-25 09:17:30.697376,1779715050.697376,2331288,-1265593,164661387,-150784,-403483,52181,61,f3fefe00,0.0,0.0,0.0,0.0,0.0,0.0
2026-05-25 09:17:30.708728,1779715050.708728,1762339,-730551,164069304,-105919,-252960,-26236,61,f3fbfe00,0.0,0.0,0.0,0.0,0.0,0.0
2026-05-25 09:17:30.717005,1779715050.717005,1762339,-730551,164069304,-105919,-252960,-26236,61,f3fbfe00,0.0,0.0,0.0,0.0,0.0,0.0
2026-05-25 09:17:30.727867,1779715050.727867,2205107,-1111133,164388982,36743,145850,85600,61,f3f7fe00,0.0,0.0,0.0,0.0,0.0,0.0
2026-05-25 09:17:30.735173,1779715050.735173,2237814,-1460505,164320432,-82525,-117890,20924,61,f3f5fe00,0.0,0.0,0.0,0.0,0.0,0.0
2026-05-25 09:17:30.744729,1779715050.744729,2237814,-1460505,164320432,-82525,-117890,20924,61,f3f5fe00,0.0,0.0,0.0,0.0,0.0,0.0
2026-05-25 09:17:30.754925,1779715050.754925,2331087,-1109597,164464286,89770,264429,69884,61,f3f3fe00,0.0,0.0,0.0,0.0,0.0,0.0
2026-05-25 09:17:30.773365,1779715050.773365,2331087,-1109597,164464286,89770,264429,69884,61,f3f3fe00,0.0,0.0,0.0,0.0,0.0,0.0
2026-05-25 09:17:30.781580,1779715050.781580,2277628,-1416891,164402773,-145225,-288390,28207,61,f3effe00,0.0,0.0,0.0,0.0,0.0,0.0
2026-05-25 09:17:30.790097,1779715050.790097,2277628,-1416891,164402773,-145225,-288390,28207,61,f3effe00,0.0,0.0,0.0,0.0,0.0,0.0
2026-05-25 09:17:30.796879,1779715050.796879,2220752,-1444642,164389203,-29412,85634,-8384,61,f3ecfe00,0.0,0.0,0.0,0.0,0.0,0.0
2026-05-25 09:17:30.806186,1779715050.806186,2220752,-1444642,164389203,-29412,85634,-8384,61,f3ecfe00,0.0,0.0,0.0,0.0,0.0,0.0
2026-05-25 09:17:30.816810,1779715050.816810,2657808,-1138111,164669609,-10686,-160469,-74053,61,f3eafe00,0.0,0.0,0.0,0.0,0.0,0.0
2026-05-25 09:17:30.832127,1779715050.832127,2657808,-1138111,164669609,-10686,-160469,-74053,61,f3eafe00,0.0,0.0,0.0,0.0,0.0,0.0
2026-05-25 09:17:30.841388,1779715050.841388,2618976,-938138,164655629,-61343,-14666,-25475,61,f3e6fe00,0.0,0.0,0.0,0.0,0.0,0.0
2026-05-25 09:17:30.853956,1779715050.853956,2618976,-938138,164655629,-61343,-14666,-25475,61,f3e6fe00,0.0,0.0,0.0,0.0,0.0,0.0
2026-05-25 09:17:30.861657,1779715050.861657,1482351,-1134410,163912877,-50627,-40356,24748,61,f3e3fe00,0.0,0.0,0.0,0.0,0.0,0.0
2026-05-25 09:17:30.870780,1779715050.870780,1482351,-1134410,163912877,-50627,-40356,24748,61,f3e3fe00,0.0,0.0,0.0,0.0,0.0,0.0
2026-05-25 09:17:30.878156,1779715050.878156,1895678,-1087305,164487019,34315,139732,19444,61,f3e1fe00,0.0,0.0,0.0,0.0,0.0,0.0
2026-05-25 09:17:30.887899,1779715050.887899,1895678,-1087305,164487019,34315,139732,19444,61,f3e1fe00,0.0,0.0,0.0,0.0,0.0,0.0
2026-05-25 09:17:30.895070,1779715050.895070,2047617,-1029191,163329692,-321347,-395481,62109,61,f3ddfe00,0.0,0.0,0.0,0.0,0.0,0.0
2026-05-25 09:17:30.905515,1779715050.905515,2047617,-1029191,163329692,-321347,-395481,62109,61,f3ddfe00,0.0,0.0,0.0,0.0,0.0,0.0
2026-05-25 09:17:30.912515,1779715050.912515,2079033,-1142802,164401437,27489,58763,23827,61,f3dafe00,0.0,0.0,0.0,0.0,0.0,0.0
2026-05-25 09:17:30.920838,1779715050.920838,2079033,-1142802,164401437,27489,58763,23827,61,f3dafe00,0.0,0.0,0.0,0.0,0.0,0.0
2026-05-25 09:17:30.931572,1779715050.931572,2461331,-2496791,164423191,71463,23034,1734,61,f3d7fe00,0.0,0.0,0.0,0.0,0.0,0.0
2026-05-25 09:17:30.940287,1779715050.940287,2461331,-2496791,164423191,71463,23034,1734,61,f3d7fe00,0.0,0.0,0.0,0.0,0.0,0.0
2026-05-25 09:17:30.955121,1779715050.955121,2226942,-1365118,164008823,-81811,-42913,-34477,61,f3d4fe00,0.0,0.0,0.0,0.0,0.0,0.0
2026-05-25 09:17:30.973323,1779715050.973323,2226942,-1365118,164008823,-81811,-42913,-34477,61,f3d4fe00,0.0,0.0,0.0,0.0,0.0,0.0
2026-05-25 09:17:30.987864,1779715050.987864,2168732,-1127262,164415998,-54474,-89178,12812,61,f3d1fe00,0.0,0.0,0.0,0.0,0.0,0.0
2026-05-25 09:17:31.005319,1779715051.005319,2168732,-1127262,164415998,-54474,-89178,12812,61,f3d1fe00,0.0,0.0,0.0,0.0,0.0,0.0
2026-05-25 09:17:31.013995,1779715051.013995,2173441,-1174948,164374999,23513,31673,-43189,61,f3cffe00,0.0,0.0,0.0,0.0,0.0,0.0
2026-05-25 09:17:31.025177,1779715051.025177,2173441,-1174948,164374999,23513,31673,-43189,61,f3cffe00,0.0,0.0,0.0,0.0,0.0,0.0
2026-05-25 09:17:31.037119,1779715051.037119,2004468,-1162156,164405958,-32015,82750,45334,61,f3cbfe00,0.0,0.0,0.0,0.0,0.0,0.0
2026-05-25 09:17:31.048846,1779715051.048846,2004468,-1162156,164405958,-32015,82750,45334,61,f3cbfe00,0.0,0.0,0.0,0.0,0.0,0.0
2026-05-25 09:17:31.064269,1779715051.064269,2004468,-1162156,164405958,-32015,82750,45334,61,f3cbfe00,0.0,0.0,0.0,0.0,0.0,0.0
2026-05-25 09:17:31.135294,1779715051.135294,2004468,-1162156,164405958,-32015,82750,45334,61,f3cbfe00,0.0,0.0,0.0,0.0,0.0,0.0
2026-05-25 09:17:31.144842,1779715051.144842,2004468,-1162156,164405958,-32015,82750,45334,61,f3cbfe00,0.0,0.0,0.0,0.0,0.0,0.0
2026-05-25 09:17:31.160536,1779715051.160536,2004468,-1162156,164405958,-32015,82750,45334,61,f3cbfe00,0.0,0.0,0.0,0.0,0.0,0.0
2026-05-25 09:17:31.177430,1779715051.177430,2004468,-1162156,164405958,-32015,82750,45334,61,f3cbfe00,0.0,0.0,0.0,0.0,0.0,0.0
2026-05-25 09:17:31.189125,1779715051.189125,2004468,-1162156,164405958,-32015,82750,45334,61,f3cbfe00,0.0,0.0,0.0,0.0,0.0,0.0
2026-05-25 09:17:31.198170,1779715051.198170,2004468,-1162156,164405958,-32015,82750,45334,61,f3cbfe00,0.0,0.0,0.0,0.0,0.0,0.0
2026-05-25 09:17:31.206518,1779715051.206518,2004468,-1162156,164405958,-32015,82750,45334,61,f3cbfe00,0.0,0.0,0.0,0.0,0.0,0.0
2026-05-25 09:17:31.212237,1779715051.212237,2189469,-1405107,164469401,24044,39778,73980,61,f3bdfe00,0.0,0.0,0.0,0.0,0.0,0.0
2026-05-25 09:17:31.221597,1779715051.221597,2189469,-1405107,164469401,24044,39778,73980,61,f3bdfe00,0.0,0.0,0.0,0.0,0.0,0.0
2026-05-25 09:17:31.230368,1779715051.230368,2189469,-1405107,164469401,24044,39778,73980,61,f3bdfe00,0.0,0.0,0.0,0.0,0.0,0.0
2026-05-25 09:17:31.239524,1779715051.239524,2189469,-1405107,164469401,24044,39778,73980,61,f3bdfe00,0.0,0.0,0.0,0.0,0.0,0.0
2026-05-25 09:17:31.249462,1779715051.249462,2189469,-1405107,164469401,24044,39778,73980,61,f3bdfe00,0.0,0.0,0.0,0.0,0.0,0.0
2026-05-25 09:17:31.260734,1779715051.260734,2189469,-1405107,164469401,24044,39778,73980,61,f3bdfe00,0.0,0.0,0.0,0.0,0.0,0.0
2026-05-25 09:17:31.269855,1779715051.269855,2189469,-1405107,164469401,24044,39778,73980,61,f3bdfe00,0.0,0.0,0.0,0.0,0.0,0.0
2026-05-25 09:17:31.279485,1779715051.279485,2189469,-1405107,164469401,24044,39778,73980,61,f3bdfe00,0.0,0.0,0.0,0.0,0.0,0.0
2026-05-25 09:17:31.288518,1779715051.288518,2189469,-1405107,164469401,24044,39778,73980,61,f3bdfe00,0.0,0.0,0.0,0.0,0.0,0.0
2026-05-25 09:17:31.300073,1779715051.300073,2189469,-1405107,164469401,24044,39778,73980,61,f3bdfe00,0.0,0.0,0.0,0.0,0.0,0.0
2026-05-25 09:17:31.308581,1779715051.308581,2189469,-1405107,164469401,24044,39778,73980,61,f3bdfe00,0.0,0.0,0.0,0.0,0.0,0.0
2026-05-25 09:17:31.316677,1779715051.316677,2189469,-1405107,164469401,24044,39778,73980,61,f3bdfe00,0.0,0.0,0.0,0.0,0.0,0.0
2026-05-25 09:17:31.325023,1779715051.325023,2189469,-1405107,164469401,24044,39778,73980,61,f3bdfe00,0.0,0.0,0.0,0.0,0.0,0.0
2026-05-25 09:17:31.342008,1779715051.342008,2189469,-1405107,164469401,24044,39778,73980,61,f3bdfe00,0.0,0.0,0.0,0.0,0.0,0.0
2026-05-25 09:17:31.359537,1779715051.359537,2189469,-1405107,164469401,24044,39778,73980,61,f3bdfe00,0.0,0.0,0.0,0.0,0.0,0.0
2026-05-25 09:17:31.376917,1779715051.376917,2189469,-1405107,164469401,24044,39778,73980,61,f3bdfe00,0.0,0.0,0.0,0.0,0.0,0.0
2026-05-25 09:17:31.395148,1779715051.395148,2189469,-1405107,164469401,24044,39778,73980,61,f3bdfe00,0.0,0.0,0.0,0.0,0.0,0.0
2026-05-25 09:17:31.412912,1779715051.412912,2189469,-1405107,164469401,24044,39778,73980,61,f3bdfe00,0.0,0.0,0.0,0.0,0.0,0.0
2026-05-25 09:17:31.425280,1779715051.425280,2189469,-1405107,164469401,24044,39778,73980,61,f3bdfe00,0.0,0.0,0.0,0.0,0.0,0.0
2026-05-25 09:17:31.441089,1779715051.441089,2189469,-1405107,164469401,24044,39778,73980,61,f3bdfe00,0.0,0.0,0.0,0.0,0.0,0.0
2026-05-25 09:17:31.459919,1779715051.459919,2189469,-1405107,164469401,24044,39778,73980,61,f3bdfe00,0.0,0.0,0.0,0.0,0.0,0.0
2026-05-25 09:17:31.477076,1779715051.477076,2189469,-1405107,164469401,24044,39778,73980,61,f3bdfe00,0.0,0.0,0.0,0.0,0.0,0.0
2026-05-25 09:17:31.493863,1779715051.493863,2189469,-1405107,164469401,24044,39778,73980,61,f3bdfe00,0.0,0.0,0.0,0.0,0.0,0.0
2026-05-25 09:17:31.510645,1779715051.510645,2189469,-1405107,164469401,24044,39778,73980,61,f3bdfe00,0.0,0.0,0.0,0.0,0.0,0.0
2026-05-25 09:17:31.527223,1779715051.527223,2189469,-1405107,164469401,24044,39778,73980,61,f3bdfe00,0.0,0.0,0.0,0.0,0.0,0.0
2026-05-25 09:17:31.538293,1779715051.538293,2189469,-1405107,164469401,24044,39778,73980,61,f3bdfe00,0.0,0.0,0.0,0.0,0.0,0.0
2026-05-25 09:17:31.549583,1779715051.549583,2189469,-1405107,164469401,24044,39778,73980,61,f3bdfe00,0.0,0.0,0.0,0.0,0.0,0.0
2026-05-25 09:17:31.559287,1779715051.559287,2189469,-1405107,164469401,24044,39778,73980,61,f3bdfe00,0.0,0.0,0.0,0.0,0.0,0.0
2026-05-25 09:17:31.567787,1779715051.567787,2189469,-1405107,164469401,24044,39778,73980,61,f3bdfe00,0.0,0.0,0.0,0.0,0.0,0.0
2026-05-25 09:17:31.578493,1779715051.578493,2189469,-1405107,164469401,24044,39778,73980,61,f3bdfe00,0.0,0.0,0.0,0.0,0.0,0.0
2026-05-25 09:17:31.587293,1779715051.587293,2189469,-1405107,164469401,24044,39778,73980,61,f3bdfe00,0.0,0.0,0.0,0.0,0.0,0.0
2026-05-25 09:17:31.596514,1779715051.596514,2189469,-1405107,164469401,24044,39778,73980,61,f3bdfe00,0.0,0.0,0.0,0.0,0.0,0.0
2026-05-25 09:17:31.604519,1779715051.604519,2243610,-1217010,164397601,27655,109592,26796,61,f39ffe00,0.0,0.0,0.0,0.0,0.0,0.0
2026-05-25 09:17:31.613731,1779715051.613731,2243610,-1217010,164397601,27655,109592,26796,61,f39ffe00,0.0,0.0,0.0,0.0,0.0,0.0
2026-05-25 09:17:31.621470,1779715051.621470,2253916,-1256940,164391203,17390,100643,17413,61,f39ffe00,0.0,0.0,0.0,0.0,0.0,0.0
2026-05-25 09:17:31.630716,1779715051.630716,2253916,-1256940,164391203,17390,100643,17413,61,f39ffe00,0.0,0.0,0.0,0.0,0.0,0.0
2026-05-25 09:17:31.683628,1779715051.683628,2279079,-1312529,164394477,23363,81878,28262,61,f39ffe00,0.0,0.0,0.0,0.0,0.0,0.0
2026-05-25 09:17:31.693331,1779715051.693331,2279079,-1312529,164394477,23363,81878,28262,61,f39ffe00,0.0,0.0,0.0,0.0,0.0,0.0
2026-05-25 09:17:31.701070,1779715051.701070,2261300,-1273007,164378348,18465,55360,34641,61,f39ffe00,0.0,0.0,0.0,0.0,0.0,0.0
2026-05-25 09:17:31.718239,1779715051.718239,2261300,-1273007,164378348,18465,55360,34641,61,f39ffe00,0.0,0.0,0.0,0.0,0.0,0.0
2026-05-25 09:17:31.731382,1779715051.731382,2216743,-1216533,164384952,9428,37244,37960,61,f39ffe00,0.0,0.0,0.0,0.0,0.0,0.0
2026-05-25 09:17:31.757004,1779715051.757004,2216743,-1216533,164384952,9428,37244,37960,61,f39ffe00,0.0,0.0,0.0,0.0,0.0,0.0
2026-05-25 09:17:31.770966,1779715051.770966,2206828,-1217079,164344134,-29572,26460,40524,61,f39ffe00,0.0,0.0,0.0,0.0,0.0,0.0
2026-05-25 09:17:31.788525,1779715051.788525,2206828,-1217079,164344134,-29572,26460,40524,61,f39ffe00,0.0,0.0,0.0,0.0,0.0,0.0
2026-05-25 09:17:31.798200,1779715051.798200,2194283,-1240791,164345406,-51598,19973,17922,61,f39efe00,0.0,0.0,0.0,0.0,0.0,0.0
2026-05-25 09:17:31.815534,1779715051.815534,2194283,-1240791,164345406,-51598,19973,17922,61,f39efe00,0.0,0.0,0.0,0.0,0.0,0.0
2026-05-25 09:17:31.837386,1779715051.837386,2194283,-1240791,164345406,-51598,19973,17922,61,f39efe00,0.0,0.0,0.0,0.0,0.0,0.0
2026-05-25 09:17:31.844045,1779715051.844045,2276774,-1228951,164326702,-95674,1022,19533,61,f39efe00,0.0,0.0,0.0,0.0,0.0,0.0
2026-05-25 09:17:31.853653,1779715051.853653,2296026,-1214649,164352206,-75222,21944,1306,61,f39ffe00,0.0,0.0,0.0,0.0,0.0,0.0
2026-05-25 09:17:31.881059,1779715051.881059,2296026,-1214649,164352206,-75222,21944,1306,61,f39ffe00,0.0,0.0,0.0,0.0,0.0,0.0
2026-05-25 09:17:31.893386,1779715051.893386,2290838,-1230304,164373765,-82889,4984,12687,61,f39ffe00,0.0,0.0,0.0,0.0,0.0,0.0
2026-05-25 09:17:31.911773,1779715051.911773,2290838,-1230304,164373765,-82889,4984,12687,61,f39ffe00,0.0,0.0,0.0,0.0,0.0,0.0
2026-05-25 09:17:31.926496,1779715051.926496,2313913,-1278928,164394113,-68795,-1011,5573,61,f39ffe00,0.0,0.0,0.0,0.0,0.0,0.0
2026-05-25 09:17:31.943897,1779715051.943897,2313913,-1278928,164394113,-68795,-1011,5573,61,f39ffe00,0.0,0.0,0.0,0.0,0.0,0.0
2026-05-25 09:17:31.958472,1779715051.958472,2233814,-1321872,164365857,-35980,-29358,17142,61,f39efe00,0.0,0.0,0.0,0.0,0.0,0.0
2026-05-25 09:17:31.974823,1779715051.974823,2233814,-1321872,164365857,-35980,-29358,17142,61,f39efe00,0.0,0.0,0.0,0.0,0.0,0.0
2026-05-25 09:17:31.988612,1779715051.988612,2248020,-1334070,164384063,-16082,-32367,16891,61,f39efe00,0.0,0.0,0.0,0.0,0.0,0.0
2026-05-25 09:17:32.000528,1779715052.000528,2210315,-1317190,164359468,-8315,-27825,31109,61,f39efe00,0.0,0.0,0.0,0.0,0.0,0.0
2026-05-25 09:17:32.009584,1779715052.009584,2210315,-1317190,164359468,-8315,-27825,31109,61,f39efe00,0.0,0.0,0.0,0.0,0.0,0.0
2026-05-25 09:17:32.017167,1779715052.017167,2201875,-1330682,164354723,-17986,-24112,29062,61,f39efe00,0.0,0.0,0.0,0.0,0.0,0.0
2026-05-25 09:17:32.026213,1779715052.026213,2201875,-1330682,164354723,-17986,-24112,29062,61,f39efe00,0.0,0.0,0.0,0.0,0.0,0.0
2026-05-25 09:17:32.035785,1779715052.035785,2243820,-1310225,164370593,-29273,-56719,15797,61,f39ffe00,0.0,0.0,0.0,0.0,0.0,0.0
2026-05-25 09:17:32.047261,1779715052.047261,2243820,-1310225,164370593,-29273,-56719,15797,61,f39ffe00,0.0,0.0,0.0,0.0,0.0,0.0
2026-05-25 09:17:32.055298,1779715052.055298,2303672,-1280015,164383381,-12705,-75119,-2575,61,f39efe00,0.0,0.0,0.0,0.0,0.0,0.0
2026-05-25 09:17:32.064570,1779715052.064570,2303672,-1280015,164383381,-12705,-75119,-2575,61,f39efe00,0.0,0.0,0.0,0.0,0.0,0.0
2026-05-25 09:17:32.071973,1779715052.071973,2306199,-1281899,164419217,-10806,-59218,-99,61,f39efe00,0.0,0.0,0.0,0.0,0.0,0.0
2026-05-25 09:17:32.083094,1779715052.083094,2306199,-1281899,164419217,-10806,-59218,-99,61,f39efe00,0.0,0.0,0.0,0.0,0.0,0.0
2026-05-25 09:17:32.095462,1779715052.095462,2290206,-1286773,164414526,6590,-24497,4705,61,f39efe00,0.0,0.0,0.0,0.0,0.0,0.0
2026-05-25 09:17:32.104413,1779715052.104413,2290206,-1286773,164414526,6590,-24497,4705,61,f39efe00,0.0,0.0,0.0,0.0,0.0,0.0
2026-05-25 09:17:32.112082,1779715052.112082,2327475,-1267925,164424398,2846,-17336,6815,61,f39efe00,0.0,0.0,0.0,0.0,0.0,0.0
2026-05-25 09:17:32.120170,1779715052.120170,2327475,-1267925,164424398,2846,-17336,6815,61,f39efe00,0.0,0.0,0.0,0.0,0.0,0.0
2026-05-25 09:17:32.132711,1779715052.132711,2328693,-1289832,164431622,16019,41137,16686,61,f39efe00,0.0,0.0,0.0,0.0,0.0,0.0
2026-05-25 09:17:32.141598,1779715052.141598,2328693,-1289832,164431622,16019,41137,16686,61,f39efe00,0.0,0.0,0.0,0.0,0.0,0.0
2026-05-25 09:17:32.148842,1779715052.148842,2328478,-1350638,164448807,46815,63109,18087,61,f39efe00,0.0,0.0,0.0,0.0,0.0,0.0
2026-05-25 09:17:32.157556,1779715052.157556,2328478,-1350638,164448807,46815,63109,18087,61,f39efe00,0.0,0.0,0.0,0.0,0.0,0.0
2026-05-25 09:17:32.168950,1779715052.168950,2278153,-1338477,164426023,55945,91669,19959,61,f39efe00,0.0,0.0,0.0,0.0,0.0,0.0
2026-05-25 09:17:32.178578,1779715052.178578,2278153,-1338477,164426023,55945,91669,19959,61,f39efe00,0.0,0.0,0.0,0.0,0.0,0.0
2026-05-25 09:17:32.186928,1779715052.186928,2245867,-1316886,164415448,14439,74659,5999,61,f39efe00,0.0,0.0,0.0,0.0,0.0,0.0
2026-05-25 09:17:32.195968,1779715052.195968,2245867,-1316886,164415448,14439,74659,5999,61,f39efe00,0.0,0.0,0.0,0.0,0.0,0.0
2026-05-25 09:17:32.212091,1779715052.212091,2245867,-1316886,164415448,14439,74659,5999,61,f39efe00,0.0,0.0,0.0,0.0,0.0,0.0
2026-05-25 09:17:32.216986,1779715052.216986,2178918,-1269771,164404099,27761,68130,8074,61,f39efe00,0.0,0.0,0.0,0.0,0.0,0.0
2026-05-25 09:17:32.223515,1779715052.223515,2170045,-1256462,164362298,13411,58325,13281,61,f39efe00,0.0,0.0,0.0,0.0,0.0,0.0
2026-05-25 09:17:32.231876,1779715052.231876,2170045,-1256462,164362298,13411,58325,13281,61,f39efe00,0.0,0.0,0.0,0.0,0.0,0.0
2026-05-25 09:17:32.241469,1779715052.241469,2156716,-1206266,164289003,44342,40018,27895,61,f39ffe00,0.0,0.0,0.0,0.0,0.0,0.0
2026-05-25 09:17:32.249733,1779715052.249733,2156716,-1206266,164289003,44342,40018,27895,61,f39ffe00,0.0,0.0,0.0,0.0,0.0,0.0
2026-05-25 09:17:32.258633,1779715052.258633,2171024,-1166539,164250643,9905,15246,31747,61,f39efe00,0.0,0.0,0.0,0.0,0.0,0.0
2026-05-25 09:17:32.273552,1779715052.273552,2171024,-1166539,164250643,9905,15246,31747,61,f39efe00,0.0,0.0,0.0,0.0,0.0,0.0
2026-05-25 09:17:32.283358,1779715052.283358,2174474,-1146784,164252921,-2288,-14711,33725,61,f39ffe00,0.0,0.0,0.0,0.0,0.0,0.0
2026-05-25 09:17:32.291723,1779715052.291723,2174474,-1146784,164252921,-2288,-14711,33725,61,f39ffe00,0.0,0.0,0.0,0.0,0.0,0.0
2026-05-25 09:17:32.297647,1779715052.297647,2188644,-1184710,164324982,-43822,-49563,16595,61,f39efe00,0.0,0.0,0.0,0.0,0.0,0.0
2026-05-25 09:17:32.305138,1779715052.305138,2188644,-1184710,164324982,-43822,-49563,16595,61,f39efe00,0.0,0.0,0.0,0.0,0.0,0.0
2026-05-25 09:17:32.316964,1779715052.316964,2161939,-1190859,164337393,-35955,-59311,11396,61,f39efe00,0.0,0.0,0.0,0.0,0.0,0.0
2026-05-25 09:17:32.324394,1779715052.324394,2161939,-1190859,164337393,-35955,-59311,11396,61,f39efe00,0.0,0.0,0.0,0.0,0.0,0.0
2026-05-25 09:17:32.330157,1779715052.330157,2227243,-1235398,164390377,-45975,-58206,25989,61,f39efe00,0.0,0.0,0.0,0.0,0.0,0.0
2026-05-25 09:17:32.338135,1779715052.338135,2227243,-1235398,164390377,-45975,-58206,25989,61,f39efe00,0.0,0.0,0.0,0.0,0.0,0.0
2026-05-25 09:17:32.346300,1779715052.346300,2272560,-1284701,164410359,-47648,-48750,28923,61,f39ffe00,0.0,0.0,0.0,0.0,0.0,0.0
2026-05-25 09:17:32.355726,1779715052.355726,2272560,-1284701,164410359,-47648,-48750,28923,61,f39ffe00,0.0,0.0,0.0,0.0,0.0,0.0
2026-05-25 09:17:32.368528,1779715052.368528,2330932,-1339595,164424247,-32513,-50074,28202,61,f39ffe00,0.0,0.0,0.0,0.0,0.0,0.0
2026-05-25 09:17:32.385333,1779715052.385333,2330932,-1339595,164424247,-32513,-50074,28202,61,f39ffe00,0.0,0.0,0.0,0.0,0.0,0.0
2026-05-25 09:17:32.399993,1779715052.399993,2372009,-1395798,164427688,2435,-27293,5301,61,f39ffe00,0.0,0.0,0.0,0.0,0.0,0.0
2026-05-25 09:17:32.416571,1779715052.416571,2372009,-1395798,164427688,2435,-27293,5301,61,f39ffe00,0.0,0.0,0.0,0.0,0.0,0.0
2026-05-25 09:17:32.429328,1779715052.429328,2351396,-1412402,164427761,21451,-24941,-3163,61,f39efe00,0.0,0.0,0.0,0.0,0.0,0.0
2026-05-25 09:17:32.445077,1779715052.445077,2351396,-1412402,164427761,21451,-24941,-3163,61,f39efe00,0.0,0.0,0.0,0.0,0.0,0.0
2026-05-25 09:17:32.457340,1779715052.457340,2273542,-1394983,164407132,34891,12998,-16789,61,f39efe00,0.0,0.0,0.0,0.0,0.0,0.0
2026-05-25 09:17:32.473105,1779715052.473105,2273542,-1394983,164407132,34891,12998,-16789,61,f39efe00,0.0,0.0,0.0,0.0,0.0,0.0
2026-05-25 09:17:32.482120,1779715052.482120,2220516,-1323043,164384224,4657,17177,-5341,61,f39efe00,0.0,0.0,0.0,0.0,0.0,0.0
2026-05-25 09:17:32.494761,1779715052.494761,2220516,-1323043,164384224,4657,17177,-5341,61,f39efe00,0.0,0.0,0.0,0.0,0.0,0.0
2026-05-25 09:17:32.508844,1779715052.508844,2148998,-1242449,164339366,-3258,21379,-9619,61,f39efe00,0.0,0.0,0.0,0.0,0.0,0.0
2026-05-25 09:17:32.524050,1779715052.524050,2148998,-1242449,164339366,-3258,21379,-9619,61,f39efe00,0.0,0.0,0.0,0.0,0.0,0.0
2026-05-25 09:17:32.536297,1779715052.536297,2162338,-1226771,164355625,-12757,-6608,7608,61,f39efe00,0.0,0.0,0.0,0.0,0.0,0.0
2026-05-25 09:17:32.551524,1779715052.551524,2162338,-1226771,164355625,-12757,-6608,7608,61,f39efe00,0.0,0.0,0.0,0.0,0.0,0.0
2026-05-25 09:17:32.563549,1779715052.563549,2232026,-1189700,164392193,20399,-5976,17223,61,f39efe00,0.0,0.0,0.0,0.0,0.0,0.0
2026-05-25 09:17:32.578599,1779715052.578599,2232026,-1189700,164392193,20399,-5976,17223,61,f39efe00,0.0,0.0,0.0,0.0,0.0,0.0
2026-05-25 09:17:32.628845,1779715052.628845,2308272,-1209787,164410316,34124,-2476,31332,61,f39efe00,0.0,0.0,0.0,0.0,0.0,0.0
2026-05-25 09:17:32.716014,1779715052.716014,2308272,-1209787,164410316,34124,-2476,31332,61,f39efe00,0.0,0.0,0.0,0.0,0.0,0.0
2026-05-25 09:17:32.732567,1779715052.732567,2317537,-1198358,164423078,25312,11299,36613,61,f39efe00,0.0,0.0,0.0,0.0,0.0,0.0
2026-05-25 09:17:32.747692,1779715052.747692,2317537,-1198358,164423078,25312,11299,36613,61,f39efe00,0.0,0.0,0.0,0.0,0.0,0.0
2026-05-25 09:17:32.814060,1779715052.814060,2313382,-1241812,164441570,25967,57565,33285,61,f39efe00,0.0,0.0,0.0,0.0,0.0,0.0
2026-05-25 09:17:32.823331,1779715052.823331,2313382,-1241812,164441570,25967,57565,33285,61,f39efe00,0.0,0.0,0.0,0.0,0.0,0.0
2026-05-25 09:17:33.474056,1779715053.474056,2263528,-1250555,164363333,-5176,66374,21560,61,f39efe00,0.0,0.0,0.0,0.0,0.0,0.0
2026-05-25 09:17:33.484065,1779715053.484065,2263528,-1250555,164363333,-5176,66374,21560,61,f39efe00,0.0,0.0,0.0,0.0,0.0,0.0
2026-05-25 09:17:33.494091,1779715053.494091,2230577,-1310310,164298702,-4422,81386,18346,61,f39efe00,0.0,0.0,0.0,0.0,0.0,0.0
2026-05-25 09:17:33.503762,1779715053.503762,2230577,-1310310,164298702,-4422,81386,18346,61,f39efe00,0.0,0.0,0.0,0.0,0.0,0.0
2026-05-25 09:17:33.514700,1779715053.514700,2261380,-1348882,164296715,-17902,29974,17630,61,f39efe00,0.0,0.0,0.0,0.0,0.0,0.0
2026-05-25 09:17:33.524065,1779715053.524065,2261380,-1348882,164296715,-17902,29974,17630,61,f39efe00,0.0,0.0,0.0,0.0,0.0,0.0
2026-05-25 09:17:33.531784,1779715053.531784,2237077,-1353836,164326666,5117,8232,36160,61,f39efe00,0.0,0.0,0.0,0.0,0.0,0.0
2026-05-25 09:17:33.541019,1779715053.541019,2237077,-1353836,164326666,5117,8232,36160,61,f39efe00,0.0,0.0,0.0,0.0,0.0,0.0
2026-05-25 09:17:33.553063,1779715053.553063,2253015,-1327523,164373520,13333,15584,66289,61,f39efe00,0.0,0.0,0.0,0.0,0.0,0.0
2026-05-25 09:17:33.570235,1779715053.570235,2253015,-1327523,164373520,13333,15584,66289,61,f39efe00,0.0,0.0,0.0,0.0,0.0,0.0
2026-05-25 09:17:33.579306,1779715053.579306,2247706,-1300069,164349781,-6171,20611,75624,61,f39efe00,0.0,0.0,0.0,0.0,0.0,0.0
2026-05-25 09:17:33.588560,1779715053.588560,2247706,-1300069,164349781,-6171,20611,75624,61,f39efe00,0.0,0.0,0.0,0.0,0.0,0.0
2026-05-25 09:17:33.606488,1779715053.606488,2198164,-1263130,164343588,-21907,44279,80905,61,f39efe00,0.0,0.0,0.0,0.0,0.0,0.0
2026-05-25 09:17:33.623576,1779715053.623576,2198164,-1263130,164343588,-21907,44279,80905,61,f39efe00,0.0,0.0,0.0,0.0,0.0,0.0
2026-05-25 09:17:33.637457,1779715053.637457,2237084,-1225383,164321146,-58223,50911,58171,61,f39efe00,0.0,0.0,0.0,0.0,0.0,0.0
2026-05-25 09:17:33.647801,1779715053.647801,2237084,-1225383,164321146,-58223,50911,58171,61,f39efe00,0.0,0.0,0.0,0.0,0.0,0.0
2026-05-25 09:17:33.659704,1779715053.659704,2228025,-1185962,164325279,-56372,44909,26724,61,f39efe00,0.0,0.0,0.0,0.0,0.0,0.0
2026-05-25 09:17:33.668927,1779715053.668927,2228025,-1185962,164325279,-56372,44909,26724,61,f39efe00,0.0,0.0,0.0,0.0,0.0,0.0
2026-05-25 09:17:33.676452,1779715053.676452,2266483,-1225884,164334031,-63732,43945,16505,61,f39efe00,0.0,0.0,0.0,0.0,0.0,0.0
2026-05-25 09:17:33.690990,1779715053.690990,2266483,-1225884,164334031,-63732,43945,16505,61,f39efe00,0.0,0.0,0.0,0.0,0.0,0.0
2026-05-25 09:17:33.716751,1779715053.716751,2272206,-1236572,164363066,-64112,25726,24495,61,f39efe00,0.0,0.0,0.0,0.0,0.0,0.0
2026-05-25 09:17:33.733540,1779715053.733540,2272206,-1236572,164363066,-64112,25726,24495,61,f39efe00,0.0,0.0,0.0,0.0,0.0,0.0
2026-05-25 09:17:33.746195,1779715053.746195,2243375,-1289352,164364116,-56032,4777,33817,61,f39efe00,0.0,0.0,0.0,0.0,0.0,0.0
2026-05-25 09:17:33.763866,1779715053.763866,2243375,-1289352,164364116,-56032,4777,33817,61,f39efe00,0.0,0.0,0.0,0.0,0.0,0.0
2026-05-25 09:17:33.783257,1779715053.783257,2197013,-1309580,164303890,-20705,-6324,44206,61,f39efe00,0.0,0.0,0.0,0.0,0.0,0.0
2026-05-25 09:17:33.800347,1779715053.800347,2197013,-1309580,164303890,-20705,-6324,44206,61,f39efe00,0.0,0.0,0.0,0.0,0.0,0.0
2026-05-25 09:17:33.813539,1779715053.813539,2171768,-1311681,164306772,-27563,-20570,47005,61,f39efe00,0.0,0.0,0.0,0.0,0.0,0.0
2026-05-25 09:17:33.830355,1779715053.830355,2171768,-1311681,164306772,-27563,-20570,47005,61,f39efe00,0.0,0.0,0.0,0.0,0.0,0.0
2026-05-25 09:17:33.853083,1779715053.853083,2176506,-1338205,164354836,-16658,-37541,30176,61,f39efe00,0.0,0.0,0.0,0.0,0.0,0.0
2026-05-25 09:17:33.869311,1779715053.869311,2176506,-1338205,164354836,-16658,-37541,30176,61,f39efe00,0.0,0.0,0.0,0.0,0.0,0.0
2026-05-25 09:17:33.882856,1779715053.882856,2224982,-1353586,164432281,-34861,-46091,23850,61,f39efe00,0.0,0.0,0.0,0.0,0.0,0.0
2026-05-25 09:17:33.898812,1779715053.898812,2224982,-1353586,164432281,-34861,-46091,23850,61,f39efe00,0.0,0.0,0.0,0.0,0.0,0.0
2026-05-25 09:17:33.914844,1779715053.914844,2261616,-1347803,164428594,-56548,-32811,13301,61,f39efe00,0.0,0.0,0.0,0.0,0.0,0.0
2026-05-25 09:17:33.926671,1779715053.926671,2261616,-1347803,164428594,-56548,-32811,13301,61,f39efe00,0.0,0.0,0.0,0.0,0.0,0.0
2026-05-25 09:17:33.934001,1779715053.934001,2299101,-1354148,164446192,-20019,-20363,20850,61,f39efe00,0.0,0.0,0.0,0.0,0.0,0.0
2026-05-25 09:17:33.943114,1779715053.943114,2299101,-1354148,164446192,-20019,-20363,20850,61,f39efe00,0.0,0.0,0.0,0.0,0.0,0.0
2026-05-25 09:17:33.950186,1779715053.950186,2282829,-1356415,164459560,1998,-751,13490,61,f39efe00,0.0,0.0,0.0,0.0,0.0,0.0
2026-05-25 09:17:33.959154,1779715053.959154,2282829,-1356415,164459560,1998,-751,13490,61,f39efe00,0.0,0.0,0.0,0.0,0.0,0.0
2026-05-25 09:17:33.966060,1779715053.966060,2328381,-1342386,164465620,26758,27348,45681,61,f39efe00,0.0,0.0,0.0,0.0,0.0,0.0
2026-05-25 09:17:33.974585,1779715053.974585,2328381,-1342386,164465620,26758,27348,45681,61,f39efe00,0.0,0.0,0.0,0.0,0.0,0.0
2026-05-25 09:17:33.981274,1779715053.981274,2306259,-1345702,164447426,32718,45059,48149,61,f39efe00,0.0,0.0,0.0,0.0,0.0,0.0
2026-05-25 09:17:33.990141,1779715053.990141,2306259,-1345702,164447426,32718,45059,48149,61,f39efe00,0.0,0.0,0.0,0.0,0.0,0.0
2026-05-25 09:17:34.003476,1779715054.003476,2312709,-1308941,164405842,28730,43384,62618,61,f39efe00,0.0,0.0,0.0,0.0,0.0,0.0
2026-05-25 09:17:34.020492,1779715054.020492,2312709,-1308941,164405842,28730,43384,62618,61,f39efe00,0.0,0.0,0.0,0.0,0.0,0.0
2026-05-25 09:17:34.034372,1779715054.034372,2253753,-1293423,164375837,64119,32086,54026,61,f39efe00,0.0,0.0,0.0,0.0,0.0,0.0
2026-05-25 09:17:34.048727,1779715054.048727,2253753,-1293423,164375837,64119,32086,54026,61,f39efe00,0.0,0.0,0.0,0.0,0.0,0.0
2026-05-25 09:17:34.061647,1779715054.061647,2267566,-1228292,164379903,42331,47231,48573,61,f39efe00,0.0,0.0,0.0,0.0,0.0,0.0
2026-05-25 09:17:34.076388,1779715054.076388,2267566,-1228292,164379903,42331,47231,48573,61,f39efe00,0.0,0.0,0.0,0.0,0.0,0.0
2026-05-25 09:17:34.083656,1779715054.083656,2277838,-1185522,164339565,29068,56307,39521,61,f39efe00,0.0,0.0,0.0,0.0,0.0,0.0
2026-05-25 09:17:34.092655,1779715054.092655,2277838,-1185522,164339565,29068,56307,39521,61,f39efe00,0.0,0.0,0.0,0.0,0.0,0.0
2026-05-25 09:17:34.100736,1779715054.100736,2265807,-1157788,164332408,31293,35880,37249,61,f39efe00,0.0,0.0,0.0,0.0,0.0,0.0
2026-05-25 09:17:34.109738,1779715054.109738,2265807,-1157788,164332408,31293,35880,37249,61,f39efe00,0.0,0.0,0.0,0.0,0.0,0.0
2026-05-25 09:17:34.116764,1779715054.116764,2207528,-1167120,164315891,35550,15421,37390,61,f39efe00,0.0,0.0,0.0,0.0,0.0,0.0
2026-05-25 09:17:34.125483,1779715054.125483,2207528,-1167120,164315891,35550,15421,37390,61,f39efe00,0.0,0.0,0.0,0.0,0.0,0.0
2026-05-25 09:17:34.134731,1779715054.134731,2190845,-1228181,164294047,33864,-7988,31333,61,f39efe00,0.0,0.0,0.0,0.0,0.0,0.0
2026-05-25 09:17:34.143415,1779715054.143415,2190845,-1228181,164294047,33864,-7988,31333,61,f39efe00,0.0,0.0,0.0,0.0,0.0,0.0
2026-05-25 09:17:34.150817,1779715054.150817,2191512,-1293580,164269097,-8215,-29154,19291,61,f39efe00,0.0,0.0,0.0,0.0,0.0,0.0
2026-05-25 09:17:34.159997,1779715054.159997,2191512,-1293580,164269097,-8215,-29154,19291,61,f39efe00,0.0,0.0,0.0,0.0,0.0,0.0
2026-05-25 09:17:34.167601,1779715054.167601,2231178,-1305440,164278149,-32029,-64744,19035,61,f39efe00,0.0,0.0,0.0,0.0,0.0,0.0
2026-05-25 09:17:34.176189,1779715054.176189,2231178,-1305440,164278149,-32029,-64744,19035,61,f39efe00,0.0,0.0,0.0,0.0,0.0,0.0
2026-05-25 09:17:34.183025,1779715054.183025,2270129,-1342576,164347578,-34394,-65207,2546,61,f39efe00,0.0,0.0,0.0,0.0,0.0,0.0
2026-05-25 09:17:34.193431,1779715054.193431,2270129,-1342576,164347578,-34394,-65207,2546,61,f39efe00,0.0,0.0,0.0,0.0,0.0,0.0
2026-05-25 09:17:34.200364,1779715054.200364,2235747,-1280450,164353892,-48548,-67348,6302,61,f39efe00,0.0,0.0,0.0,0.0,0.0,0.0
2026-05-25 09:17:34.210120,1779715054.210120,2235747,-1280450,164353892,-48548,-67348,6302,61,f39efe00,0.0,0.0,0.0,0.0,0.0,0.0
2026-05-25 09:17:34.216683,1779715054.216683,2294092,-1244078,164392524,-56131,-47858,15964,61,f39efe00,0.0,0.0,0.0,0.0,0.0,0.0
2026-05-25 09:17:34.226490,1779715054.226490,2294092,-1244078,164392524,-56131,-47858,15964,61,f39efe00,0.0,0.0,0.0,0.0,0.0,0.0
2026-05-25 09:17:34.233711,1779715054.233711,2275105,-1185041,164341837,-72491,-74180,49846,61,f39efe00,0.0,0.0,0.0,0.0,0.0,0.0
2026-05-25 09:17:34.242636,1779715054.242636,2275105,-1185041,164341837,-72491,-74180,49846,61,f39efe00,0.0,0.0,0.0,0.0,0.0,0.0
2026-05-25 09:17:34.249862,1779715054.249862,2313072,-1194851,164367196,-81650,-42033,33276,61,f39efe00,0.0,0.0,0.0,0.0,0.0,0.0
2026-05-25 09:17:34.259778,1779715054.259778,2313072,-1194851,164367196,-81650,-42033,33276,61,f39efe00,0.0,0.0,0.0,0.0,0.0,0.0
2026-05-25 09:17:34.270080,1779715054.270080,2275497,-1239291,164377833,-91616,-59877,27975,61,f39efe00,0.0,0.0,0.0,0.0,0.0,0.0
2026-05-25 09:17:34.279505,1779715054.279505,2275497,-1239291,164377833,-91616,-59877,27975,61,f39efe00,0.0,0.0,0.0,0.0,0.0,0.0
2026-05-25 09:17:34.288299,1779715054.288299,2299376,-1299889,164445290,-54387,-33857,19871,61,f39efe00,0.0,0.0,0.0,0.0,0.0,0.0
2026-05-25 09:17:34.297386,1779715054.297386,2299376,-1299889,164445290,-54387,-33857,19871,61,f39efe00,0.0,0.0,0.0,0.0,0.0,0.0
2026-05-25 09:17:34.304734,1779715054.304734,2303524,-1292656,164455561,-27057,-34102,22454,61,f39efe00,0.0,0.0,0.0,0.0,0.0,0.0
2026-05-25 09:17:34.316406,1779715054.316406,2303524,-1292656,164455561,-27057,-34102,22454,61,f39efe00,0.0,0.0,0.0,0.0,0.0,0.0
2026-05-25 09:17:34.324006,1779715054.324006,2330983,-1295071,164386467,2003,-6338,21989,61,f39efe00,0.0,0.0,0.0,0.0,0.0,0.0
2026-05-25 09:17:34.333976,1779715054.333976,2330983,-1295071,164386467,2003,-6338,21989,61,f39efe00,0.0,0.0,0.0,0.0,0.0,0.0
2026-05-25 09:17:34.341524,1779715054.341524,2283405,-1271832,164290227,-23864,-12358,35518,61,f39efe00,0.0,0.0,0.0,0.0,0.0,0.0
2026-05-25 09:17:34.354979,1779715054.354979,2283405,-1271832,164290227,-23864,-12358,35518,61,f39efe00,0.0,0.0,0.0,0.0,0.0,0.0
2026-05-25 09:17:34.368475,1779715054.368475,2268939,-1295773,164324606,-31009,-917,28727,61,f39efe00,0.0,0.0,0.0,0.0,0.0,0.0
2026-05-25 09:17:34.384584,1779715054.384584,2268939,-1295773,164324606,-31009,-917,28727,61,f39efe00,0.0,0.0,0.0,0.0,0.0,0.0
2026-05-25 09:17:34.397692,1779715054.397692,2297214,-1316807,164407159,-46067,9693,20347,61,f39efe00,0.0,0.0,0.0,0.0,0.0,0.0
2026-05-25 09:17:34.410695,1779715054.410695,2297214,-1316807,164407159,-46067,9693,20347,61,f39efe00,0.0,0.0,0.0,0.0,0.0,0.0
2026-05-25 09:17:34.424681,1779715054.424681,2378506,-1328734,164513526,-25653,72386,5299,61,f39efe00,0.0,0.0,0.0,0.0,0.0,0.0
2026-05-25 09:17:34.441845,1779715054.441845,2378506,-1328734,164513526,-25653,72386,5299,61,f39efe00,0.0,0.0,0.0,0.0,0.0,0.0
2026-05-25 09:17:34.454960,1779715054.454960,2439277,-1354006,164520939,1260,145154,24863,61,f39efe00,0.0,0.0,0.0,0.0,0.0,0.0
2026-05-25 09:17:34.470893,1779715054.470893,2439277,-1354006,164520939,1260,145154,24863,61,f39efe00,0.0,0.0,0.0,0.0,0.0,0.0
2026-05-25 09:17:34.483727,1779715054.483727,2439792,-1316536,164490922,43528,184708,52939,61,f39efe00,0.0,0.0,0.0,0.0,0.0,0.0
2026-05-25 09:17:34.493351,1779715054.493351,2439792,-1316536,164490922,43528,184708,52939,61,f39efe00,0.0,0.0,0.0,0.0,0.0,0.0
2026-05-25 09:17:34.500250,1779715054.500250,2369891,-1291383,164436171,49244,199345,68510,61,f39efe00,0.0,0.0,0.0,0.0,0.0,0.0
2026-05-25 09:17:34.509648,1779715054.509648,2369891,-1291383,164436171,49244,199345,68510,61,f39efe00,0.0,0.0,0.0,0.0,0.0,0.0
2026-05-25 09:17:34.517776,1779715054.517776,2289045,-1266335,164375960,25060,185629,75614,61,f39efe00,0.0,0.0,0.0,0.0,0.0,0.0
2026-05-25 09:17:34.528436,1779715054.528436,2289045,-1266335,164375960,25060,185629,75614,61,f39efe00,0.0,0.0,0.0,0.0,0.0,0.0
2026-05-25 09:17:34.536855,1779715054.536855,2178045,-1306700,164355893,26012,149930,57554,61,f39efe00,0.0,0.0,0.0,0.0,0.0,0.0
2026-05-25 09:17:34.545476,1779715054.545476,2178045,-1306700,164355893,26012,149930,57554,61,f39efe00,0.0,0.0,0.0,0.0,0.0,0.0
2026-05-25 09:17:34.555955,1779715054.555955,2128006,-1275509,164299294,52025,125588,42577,61,f39efe00,0.0,0.0,0.0,0.0,0.0,0.0
2026-05-25 09:17:34.564742,1779715054.564742,2128006,-1275509,164299294,52025,125588,42577,61,f39efe00,0.0,0.0,0.0,0.0,0.0,0.0
2026-05-25 09:17:34.571878,1779715054.571878,2140238,-1285044,164295200,50717,82767,28586,61,f39efe00,0.0,0.0,0.0,0.0,0.0,0.0
2026-05-25 09:17:34.580237,1779715054.580237,2140238,-1285044,164295200,50717,82767,28586,61,f39efe00,0.0,0.0,0.0,0.0,0.0,0.0
2026-05-25 09:17:34.587767,1779715054.587767,2124963,-1208391,164219957,28561,49153,40067,61,f39efe00,0.0,0.0,0.0,0.0,0.0,0.0
2026-05-25 09:17:34.596800,1779715054.596800,2124963,-1208391,164219957,28561,49153,40067,61,f39efe00,0.0,0.0,0.0,0.0,0.0,0.0
2026-05-25 09:17:34.603598,1779715054.603598,2100614,-1196762,164161687,-17089,-2536,41001,61,f39efe00,0.0,0.0,0.0,0.0,0.0,0.0
2026-05-25 09:17:34.611639,1779715054.611639,2100614,-1196762,164161687,-17089,-2536,41001,61,f39efe00,0.0,0.0,0.0,0.0,0.0,0.0
2026-05-25 09:17:34.617986,1779715054.617986,2093982,-1170769,164195117,-21084,-46673,20331,61,f39efe00,0.0,0.0,0.0,0.0,0.0,0.0
2026-05-25 09:17:34.627418,1779715054.627418,2093982,-1170769,164195117,-21084,-46673,20331,61,f39efe00,0.0,0.0,0.0,0.0,0.0,0.0
2026-05-25 09:17:34.635335,1779715054.635335,2120592,-1189955,164257875,-26313,-83804,-2451,61,f39efe00,0.0,0.0,0.0,0.0,0.0,0.0
2026-05-25 09:17:34.644798,1779715054.644798,2120592,-1189955,164257875,-26313,-83804,-2451,61,f39efe00,0.0,0.0,0.0,0.0,0.0,0.0
2026-05-25 09:17:34.652296,1779715054.652296,2271570,-1233752,164455086,12786,-79383,-4136,61,f39efe00,0.0,0.0,0.0,0.0,0.0,0.0
2026-05-25 09:17:34.661372,1779715054.661372,2271570,-1233752,164455086,12786,-79383,-4136,61,f39efe00,0.0,0.0,0.0,0.0,0.0,0.0
2026-05-25 09:17:34.668913,1779715054.668913,2444900,-1243931,164546191,16503,-53337,-5354,61,f39efe00,0.0,0.0,0.0,0.0,0.0,0.0
2026-05-25 09:17:34.685353,1779715054.685353,2444900,-1243931,164546191,16503,-53337,-5354,61,f39efe00,0.0,0.0,0.0,0.0,0.0,0.0
2026-05-25 09:17:34.696592,1779715054.696592,2571893,-1264208,164595644,27632,2048,17825,61,f39efe00,0.0,0.0,0.0,0.0,0.0,0.0
2026-05-25 09:17:34.705710,1779715054.705710,2571893,-1264208,164595644,27632,2048,17825,61,f39efe00,0.0,0.0,0.0,0.0,0.0,0.0
2026-05-25 09:17:34.712546,1779715054.712546,2587988,-1220131,164520179,1073,64184,45791,61,f39efe00,0.0,0.0,0.0,0.0,0.0,0.0
2026-05-25 09:17:34.720660,1779715054.720660,2587988,-1220131,164520179,1073,64184,45791,61,f39efe00,0.0,0.0,0.0,0.0,0.0,0.0
2026-05-25 09:17:34.728587,1779715054.728587,2542608,-1234115,164442912,-4150,74140,62031,61,f39efe00,0.0,0.0,0.0,0.0,0.0,0.0
2026-05-25 09:17:34.737463,1779715054.737463,2542608,-1234115,164442912,-4150,74140,62031,61,f39efe00,0.0,0.0,0.0,0.0,0.0,0.0
2026-05-25 09:17:34.750328,1779715054.750328,2274063,-1263833,164317118,-34986,78688,68447,61,f39efe00,0.0,0.0,0.0,0.0,0.0,0.0
2026-05-25 09:17:34.764296,1779715054.764296,2274063,-1263833,164317118,-34986,78688,68447,61,f39efe00,0.0,0.0,0.0,0.0,0.0,0.0
2026-05-25 09:17:34.772379,1779715054.772379,2118162,-1321457,164279448,-46487,55150,35729,61,f39efe00,0.0,0.0,0.0,0.0,0.0,0.0
2026-05-25 09:17:34.781930,1779715054.781930,2118162,-1321457,164279448,-46487,55150,35729,61,f39efe00,0.0,0.0,0.0,0.0,0.0,0.0
2026-05-25 09:17:34.790041,1779715054.790041,2091927,-1317118,164315444,-34952,21583,26997,61,f39dfe00,0.0,0.0,0.0,0.0,0.0,0.0
2026-05-25 09:17:34.799018,1779715054.799018,2091927,-1317118,164315444,-34952,21583,26997,61,f39dfe00,0.0,0.0,0.0,0.0,0.0,0.0
2026-05-25 09:17:34.806632,1779715054.806632,2118872,-1313723,164305031,-41798,8409,16146,61,f39dfe00,0.0,0.0,0.0,0.0,0.0,0.0
2026-05-25 09:17:34.815877,1779715054.815877,2118872,-1313723,164305031,-41798,8409,16146,61,f39dfe00,0.0,0.0,0.0,0.0,0.0,0.0
2026-05-25 09:17:34.829342,1779715054.829342,2320427,-1283422,164388297,6804,3688,35041,61,f39efe00,0.0,0.0,0.0,0.0,0.0,0.0
2026-05-25 09:17:34.841002,1779715054.841002,2320427,-1283422,164388297,6804,3688,35041,61,f39efe00,0.0,0.0,0.0,0.0,0.0,0.0
2026-05-25 09:17:34.848063,1779715054.848063,2390339,-1285363,164448108,18688,34289,72677,61,f39efe00,0.0,0.0,0.0,0.0,0.0,0.0
2026-05-25 09:17:34.856066,1779715054.856066,2390339,-1285363,164448108,18688,34289,72677,61,f39efe00,0.0,0.0,0.0,0.0,0.0,0.0
2026-05-25 09:17:34.863553,1779715054.863553,2419126,-1232197,164470126,10371,73355,69819,61,f39efe00,0.0,0.0,0.0,0.0,0.0,0.0
2026-05-25 09:17:34.874964,1779715054.874964,2419126,-1232197,164470126,10371,73355,69819,61,f39efe00,0.0,0.0,0.0,0.0,0.0,0.0
2026-05-25 09:17:34.888886,1779715054.888886,2389133,-1212671,164459537,-1979,83036,41789,61,f39efe00,0.0,0.0,0.0,0.0,0.0,0.0
2026-05-25 09:17:34.902161,1779715054.902161,2389133,-1212671,164459537,-1979,83036,41789,61,f39efe00,0.0,0.0,0.0,0.0,0.0,0.0
2026-05-25 09:17:34.909719,1779715054.909719,2369870,-1193402,164433347,-3080,88332,-1675,61,f39efe00,0.0,0.0,0.0,0.0,0.0,0.0
2026-05-25 09:17:34.919248,1779715054.919248,2369870,-1193402,164433347,-3080,88332,-1675,61,f39efe00,0.0,0.0,0.0,0.0,0.0,0.0
2026-05-25 09:17:34.927093,1779715054.927093,2335649,-1215745,164437240,-17661,122368,7275,61,f39efe00,0.0,0.0,0.0,0.0,0.0,0.0
2026-05-25 09:17:34.936905,1779715054.936905,2335649,-1215745,164437240,-17661,122368,7275,61,f39efe00,0.0,0.0,0.0,0.0,0.0,0.0
2026-05-25 09:17:34.949883,1779715054.949883,2233179,-1238071,164388584,-824,163846,16308,61,f39efe00,0.0,0.0,0.0,0.0,0.0,0.0
2026-05-25 09:17:34.961884,1779715054.961884,2233179,-1238071,164388584,-824,163846,16308,61,f39efe00,0.0,0.0,0.0,0.0,0.0,0.0
2026-05-25 09:17:34.969823,1779715054.969823,2143435,-1247268,164318824,-14988,173815,40425,61,f39efe00,0.0,0.0,0.0,0.0,0.0,0.0
2026-05-25 09:17:34.981108,1779715054.981108,2143435,-1247268,164318824,-14988,173815,40425,61,f39efe00,0.0,0.0,0.0,0.0,0.0,0.0
2026-05-25 09:17:34.989011,1779715054.989011,2107730,-1226645,164222018,-10123,139262,38586,61,f39efe00,0.0,0.0,0.0,0.0,0.0,0.0
2026-05-25 09:17:34.998752,1779715054.998752,2107730,-1226645,164222018,-10123,139262,38586,61,f39efe00,0.0,0.0,0.0,0.0,0.0,0.0
2026-05-25 09:17:35.006314,1779715055.006314,2091423,-1231464,164275746,-24647,58268,28396,61,f39efe00,0.0,0.0,0.0,0.0,0.0,0.0
2026-05-25 09:17:35.015250,1779715055.015250,2091423,-1231464,164275746,-24647,58268,28396,61,f39efe00,0.0,0.0,0.0,0.0,0.0,0.0
2026-05-25 09:17:35.021910,1779715055.021910,2188904,-1225007,164341448,-6639,25814,15358,61,f39efe00,0.0,0.0,0.0,0.0,0.0,0.0
2026-05-25 09:17:35.030931,1779715055.030931,2188904,-1225007,164341448,-6639,25814,15358,61,f39efe00,0.0,0.0,0.0,0.0,0.0,0.0
2026-05-25 09:17:35.038197,1779715055.038197,2249543,-1261365,164441606,16936,9695,4314,61,f39efe00,0.0,0.0,0.0,0.0,0.0,0.0
2026-05-25 09:17:35.047247,1779715055.047247,2249543,-1261365,164441606,16936,9695,4314,61,f39efe00,0.0,0.0,0.0,0.0,0.0,0.0
2026-05-25 09:17:35.054897,1779715055.054897,2337802,-1231647,164470794,36464,43345,32088,61,f39dfe00,0.0,0.0,0.0,0.0,0.0,0.0
2026-05-25 09:17:35.063387,1779715055.063387,2337802,-1231647,164470794,36464,43345,32088,61,f39dfe00,0.0,0.0,0.0,0.0,0.0,0.0
2026-05-25 09:17:35.070826,1779715055.070826,2345937,-1267461,164442853,39431,59494,43912,61,f39dfe00,0.0,0.0,0.0,0.0,0.0,0.0
2026-05-25 09:17:35.079916,1779715055.079916,2345937,-1267461,164442853,39431,59494,43912,61,f39dfe00,0.0,0.0,0.0,0.0,0.0,0.0
2026-05-25 09:17:35.087929,1779715055.087929,2300682,-1234832,164375454,4115,88612,73796,61,f39efe00,0.0,0.0,0.0,0.0,0.0,0.0
2026-05-25 09:17:35.096643,1779715055.096643,2300682,-1234832,164375454,4115,88612,73796,61,f39efe00,0.0,0.0,0.0,0.0,0.0,0.0
2026-05-25 09:17:35.104597,1779715055.104597,2237616,-1215106,164239673,-25097,79154,54524,61,f39dfe00,0.0,0.0,0.0,0.0,0.0,0.0
2026-05-25 09:17:35.113146,1779715055.113146,2237616,-1215106,164239673,-25097,79154,54524,61,f39dfe00,0.0,0.0,0.0,0.0,0.0,0.0
2026-05-25 09:17:35.120500,1779715055.120500,2171489,-1178210,164214760,-49284,60976,35590,61,f39dfe00,0.0,0.0,0.0,0.0,0.0,0.0
2026-05-25 09:17:35.129371,1779715055.129371,2171489,-1178210,164214760,-49284,60976,35590,61,f39dfe00,0.0,0.0,0.0,0.0,0.0,0.0
2026-05-25 09:17:35.136920,1779715055.136920,2180020,-1241927,164191027,-48502,25920,19717,61,f39dfe00,0.0,0.0,0.0,0.0,0.0,0.0
2026-05-25 09:17:35.145971,1779715055.145971,2180020,-1241927,164191027,-48502,25920,19717,61,f39dfe00,0.0,0.0,0.0,0.0,0.0,0.0
2026-05-25 09:17:35.154114,1779715055.154114,2203423,-1305834,164260486,-41951,-8943,-4437,61,f39efe00,0.0,0.0,0.0,0.0,0.0,0.0
2026-05-25 09:17:35.163682,1779715055.163682,2203423,-1305834,164260486,-41951,-8943,-4437,61,f39efe00,0.0,0.0,0.0,0.0,0.0,0.0
2026-05-25 09:17:35.171865,1779715055.171865,2195934,-1347077,164306077,-50825,-69631,-2724,61,f39dfe00,0.0,0.0,0.0,0.0,0.0,0.0
2026-05-25 09:17:35.181924,1779715055.181924,2195934,-1347077,164306077,-50825,-69631,-2724,61,f39dfe00,0.0,0.0,0.0,0.0,0.0,0.0
2026-05-25 09:17:35.190584,1779715055.190584,2197212,-1354520,164281987,-51086,-89991,20930,61,f39dfe00,0.0,0.0,0.0,0.0,0.0,0.0
2026-05-25 09:17:35.199903,1779715055.199903,2197212,-1354520,164281987,-51086,-89991,20930,61,f39dfe00,0.0,0.0,0.0,0.0,0.0,0.0
2026-05-25 09:17:35.207411,1779715055.207411,2177468,-1309051,164368924,-67769,-95868,35815,61,f39dfe00,0.0,0.0,0.0,0.0,0.0,0.0
2026-05-25 09:17:35.216710,1779715055.216710,2177468,-1309051,164368924,-67769,-95868,35815,61,f39dfe00,0.0,0.0,0.0,0.0,0.0,0.0
2026-05-25 09:17:35.224946,1779715055.224946,2252365,-1310323,164457794,-48574,-59436,24009,61,f39dfe00,0.0,0.0,0.0,0.0,0.0,0.0
2026-05-25 09:17:35.233664,1779715055.233664,2252365,-1310323,164457794,-48574,-59436,24009,61,f39dfe00,0.0,0.0,0.0,0.0,0.0,0.0
2026-05-25 09:17:35.242119,1779715055.242119,2388316,-1265903,164568000,-18119,-767,8267,61,f39dfe00,0.0,0.0,0.0,0.0,0.0,0.0
2026-05-25 09:17:35.258715,1779715055.258715,2388316,-1265903,164568000,-18119,-767,8267,61,f39dfe00,0.0,0.0,0.0,0.0,0.0,0.0
2026-05-25 09:17:35.272294,1779715055.272294,2534681,-1250261,164647257,31903,82040,12581,61,f39dfe00,0.0,0.0,0.0,0.0,0.0,0.0
2026-05-25 09:17:35.281864,1779715055.281864,2534681,-1250261,164647257,31903,82040,12581,61,f39dfe00,0.0,0.0,0.0,0.0,0.0,0.0
2026-05-25 09:17:35.295002,1779715055.295002,2561458,-1233345,164632611,24724,197666,46161,61,f39dfe00,0.0,0.0,0.0,0.0,0.0,0.0
2026-05-25 09:17:35.311338,1779715055.311338,2561458,-1233345,164632611,24724,197666,46161,61,f39dfe00,0.0,0.0,0.0,0.0,0.0,0.0
2026-05-25 09:17:35.325792,1779715055.325792,2494706,-1232900,164616658,25655,273635,57738,61,f39dfe00,0.0,0.0,0.0,0.0,0.0,0.0
2026-05-25 09:17:35.340554,1779715055.340554,2494706,-1232900,164616658,25655,273635,57738,61,f39dfe00,0.0,0.0,0.0,0.0,0.0,0.0
2026-05-25 09:17:35.350581,1779715055.350581,2320625,-1245101,164545822,16673,344809,68602,61,f39dfe00,0.0,0.0,0.0,0.0,0.0,0.0
2026-05-25 09:17:35.366451,1779715055.366451,2320625,-1245101,164545822,16673,344809,68602,61,f39dfe00,0.0,0.0,0.0,0.0,0.0,0.0
2026-05-25 09:17:35.379633,1779715055.379633,2202281,-1201397,164390816,50845,318410,66931,61,f39dfe00,0.0,0.0,0.0,0.0,0.0,0.0
2026-05-25 09:17:35.389345,1779715055.389345,2202281,-1201397,164390816,50845,318410,66931,61,f39dfe00,0.0,0.0,0.0,0.0,0.0,0.0
2026-05-25 09:17:35.398081,1779715055.398081,2118757,-1219410,164251808,76942,300311,46464,61,f39dfe00,0.0,0.0,0.0,0.0,0.0,0.0
2026-05-25 09:17:35.407611,1779715055.407611,2118757,-1219410,164251808,76942,300311,46464,61,f39dfe00,0.0,0.0,0.0,0.0,0.0,0.0
2026-05-25 09:17:35.417072,1779715055.417072,2027230,-1264236,164170206,46538,260268,23265,61,f39dfe00,0.0,0.0,0.0,0.0,0.0,0.0
2026-05-25 09:17:35.424962,1779715055.424962,2027230,-1264236,164170206,46538,260268,23265,61,f39dfe00,0.0,0.0,0.0,0.0,0.0,0.0
2026-05-25 09:17:35.432909,1779715055.432909,1973221,-1290078,164192750,17310,204842,9991,61,f39dfe00,0.0,0.0,0.0,0.0,0.0,0.0
2026-05-25 09:17:35.449652,1779715055.449652,1973221,-1290078,164192750,17310,204842,9991,61,f39dfe00,0.0,0.0,0.0,0.0,0.0,0.0
2026-05-25 09:17:35.463160,1779715055.463160,1928926,-1283217,164233607,10614,110929,-4061,61,f39efe00,0.0,0.0,0.0,0.0,0.0,0.0
2026-05-25 09:17:35.479506,1779715055.479506,1928926,-1283217,164233607,10614,110929,-4061,61,f39efe00,0.0,0.0,0.0,0.0,0.0,0.0
2026-05-25 09:17:35.492732,1779715055.492732,1999374,-1258235,164279176,32986,48355,-3834,61,f39efe00,0.0,0.0,0.0,0.0,0.0,0.0
2026-05-25 09:17:35.509401,1779715055.509401,1999374,-1258235,164279176,32986,48355,-3834,61,f39efe00,0.0,0.0,0.0,0.0,0.0,0.0
2026-05-25 09:17:35.557739,1779715055.557739,2101838,-1219829,164310314,44661,13613,-2994,61,f39efe00,0.0,0.0,0.0,0.0,0.0,0.0
2026-05-25 09:17:35.600829,1779715055.600829,2101838,-1219829,164310314,44661,13613,-2994,61,f39efe00,0.0,0.0,0.0,0.0,0.0,0.0
2026-05-25 09:17:35.607525,1779715055.607525,2186914,-1188490,164384150,38198,2648,2803,61,f39dfe00,0.0,0.0,0.0,0.0,0.0,0.0
2026-05-25 09:17:35.615474,1779715055.615474,2186914,-1188490,164384150,38198,2648,2803,61,f39dfe00,0.0,0.0,0.0,0.0,0.0,0.0
2026-05-25 09:17:35.638038,1779715055.638038,2263517,-1171744,164483074,40177,-3217,-11662,61,f39dfe00,0.0,0.0,0.0,0.0,0.0,0.0
2026-05-25 09:17:35.645921,1779715055.645921,2263517,-1171744,164483074,40177,-3217,-11662,61,f39dfe00,0.0,0.0,0.0,0.0,0.0,0.0
2026-05-25 09:17:36.188569,1779715056.188569,2314449,-1181845,164482542,22085,-1255,-1417,61,f39dfe00,0.0,0.0,0.0,0.0,0.0,0.0
2026-05-25 09:17:36.204842,1779715056.204842,2314449,-1181845,164482542,22085,-1255,-1417,61,f39dfe00,0.0,0.0,0.0,0.0,0.0,0.0
2026-05-25 09:17:36.218671,1779715056.218671,2328748,-1225411,164506454,20188,3256,7578,61,f39dfe00,0.0,0.0,0.0,0.0,0.0,0.0
2026-05-25 09:17:36.227601,1779715056.227601,2328748,-1225411,164506454,20188,3256,7578,61,f39dfe00,0.0,0.0,0.0,0.0,0.0,0.0
2026-05-25 09:17:36.239411,1779715056.239411,2319222,-1298952,164422118,-9798,82546,26793,61,f39dfe00,0.0,0.0,0.0,0.0,0.0,0.0
2026-05-25 09:17:36.248256,1779715056.248256,2319222,-1298952,164422118,-9798,82546,26793,61,f39dfe00,0.0,0.0,0.0,0.0,0.0,0.0
2026-05-25 09:17:36.260275,1779715056.260275,2251668,-1315066,164354488,-31831,111235,28213,61,f39dfe00,0.0,0.0,0.0,0.0,0.0,0.0
2026-05-25 09:17:36.276813,1779715056.276813,2251668,-1315066,164354488,-31831,111235,28213,61,f39dfe00,0.0,0.0,0.0,0.0,0.0,0.0
2026-05-25 09:17:36.299627,1779715056.299627,2149626,-1287276,164258538,-24982,95526,14815,61,f39dfe00,0.0,0.0,0.0,0.0,0.0,0.0
2026-05-25 09:17:36.308348,1779715056.308348,2149626,-1287276,164258538,-24982,95526,14815,61,f39dfe00,0.0,0.0,0.0,0.0,0.0,0.0
2026-05-25 09:17:36.316243,1779715056.316243,2111601,-1295448,164205817,-37296,66228,17486,61,f39dfe00,0.0,0.0,0.0,0.0,0.0,0.0
2026-05-25 09:17:36.325562,1779715056.325562,2111601,-1295448,164205817,-37296,66228,17486,61,f39dfe00,0.0,0.0,0.0,0.0,0.0,0.0
2026-05-25 09:17:36.335369,1779715056.335369,2014854,-1287061,164186524,-28355,25156,-3909,61,f39dfe00,0.0,0.0,0.0,0.0,0.0,0.0
2026-05-25 09:17:36.351024,1779715056.351024,2014854,-1287061,164186524,-28355,25156,-3909,61,f39dfe00,0.0,0.0,0.0,0.0,0.0,0.0
2026-05-25 09:17:36.359051,1779715056.359051,2003444,-1247250,164142533,-21170,-29344,-15261,61,f39efe00,0.0,0.0,0.0,0.0,0.0,0.0
2026-05-25 09:17:36.369732,1779715056.369732,2003444,-1247250,164142533,-21170,-29344,-15261,61,f39efe00,0.0,0.0,0.0,0.0,0.0,0.0
2026-05-25 09:17:36.380043,1779715056.380043,2017875,-1155485,164205565,-19063,-87349,-9901,61,f39efe00,0.0,0.0,0.0,0.0,0.0,0.0
2026-05-25 09:17:36.389530,1779715056.389530,2017875,-1155485,164205565,-19063,-87349,-9901,61,f39efe00,0.0,0.0,0.0,0.0,0.0,0.0
2026-05-25 09:17:36.397455,1779715056.397455,2073719,-1047614,164258888,-39520,-137259,1514,61,f39efe00,0.0,0.0,0.0,0.0,0.0,0.0
2026-05-25 09:17:36.406545,1779715056.406545,2073719,-1047614,164258888,-39520,-137259,1514,61,f39efe00,0.0,0.0,0.0,0.0,0.0,0.0
2026-05-25 09:17:36.416645,1779715056.416645,2161179,-1085036,164400276,-56485,-176663,-11392,61,f39dfe00,0.0,0.0,0.0,0.0,0.0,0.0
2026-05-25 09:17:36.425258,1779715056.425258,2161179,-1085036,164400276,-56485,-176663,-11392,61,f39dfe00,0.0,0.0,0.0,0.0,0.0,0.0
2026-05-25 09:17:36.432255,1779715056.432255,2273233,-1176523,164470478,-40900,-179731,-31260,61,f39dfe00,0.0,0.0,0.0,0.0,0.0,0.0
2026-05-25 09:17:36.440264,1779715056.440264,2273233,-1176523,164470478,-40900,-179731,-31260,61,f39dfe00,0.0,0.0,0.0,0.0,0.0,0.0
2026-05-25 09:17:36.450861,1779715056.450861,2398892,-1306006,164527002,-3677,-142112,-9554,61,f39efe00,0.0,0.0,0.0,0.0,0.0,0.0
2026-05-25 09:17:36.461656,1779715056.461656,2398892,-1306006,164527002,-3677,-142112,-9554,61,f39efe00,0.0,0.0,0.0,0.0,0.0,0.0
2026-05-25 09:17:36.468979,1779715056.468979,2506179,-1391450,164532554,12067,-120252,13720,61,f39dfe00,0.0,0.0,0.0,0.0,0.0,0.0
2026-05-25 09:17:36.478159,1779715056.478159,2506179,-1391450,164532554,12067,-120252,13720,61,f39dfe00,0.0,0.0,0.0,0.0,0.0,0.0
2026-05-25 09:17:36.502714,1779715056.502714,2532442,-1436131,164509768,31968,-55755,26376,61,f39dfe00,0.0,0.0,0.0,0.0,0.0,0.0
2026-05-25 09:17:36.519417,1779715056.519417,2532442,-1436131,164509768,31968,-55755,26376,61,f39dfe00,0.0,0.0,0.0,0.0,0.0,0.0
2026-05-25 09:17:36.536523,1779715056.536523,2415826,-1459993,164431345,15486,-15400,19910,61,f39dfe00,0.0,0.0,0.0,0.0,0.0,0.0
2026-05-25 09:17:36.544078,1779715056.544078,2415826,-1459993,164431345,15486,-15400,19910,61,f39dfe00,0.0,0.0,0.0,0.0,0.0,0.0
2026-05-25 09:17:36.554385,1779715056.554385,2319453,-1382472,164372819,17959,40877,223,61,f39efe00,0.0,0.0,0.0,0.0,0.0,0.0
2026-05-25 09:17:36.561634,1779715056.561634,2319453,-1382472,164372819,17959,40877,223,61,f39efe00,0.0,0.0,0.0,0.0,0.0,0.0
2026-05-25 09:17:36.567633,1779715056.567633,2184433,-1330964,164368597,19272,33393,-10660,61,f39efe00,0.0,0.0,0.0,0.0,0.0,0.0
2026-05-25 09:17:36.574924,1779715056.574924,2184433,-1330964,164368597,19272,33393,-10660,61,f39efe00,0.0,0.0,0.0,0.0,0.0,0.0
2026-05-25 09:17:36.587440,1779715056.587440,2151804,-1237558,164361669,5321,26391,-22578,61,f39dfe00,0.0,0.0,0.0,0.0,0.0,0.0
2026-05-25 09:17:36.602123,1779715056.602123,2151804,-1237558,164361669,5321,26391,-22578,61,f39dfe00,0.0,0.0,0.0,0.0,0.0,0.0
2026-05-25 09:17:36.612600,1779715056.612600,2144767,-1168295,164379890,23313,24979,4057,61,f39dfe00,0.0,0.0,0.0,0.0,0.0,0.0
2026-05-25 09:17:36.622416,1779715056.622416,2144767,-1168295,164379890,23313,24979,4057,61,f39dfe00,0.0,0.0,0.0,0.0,0.0,0.0
2026-05-25 09:17:36.630877,1779715056.630877,2205764,-1080926,164331855,9317,21913,22247,61,f39dfe00,0.0,0.0,0.0,0.0,0.0,0.0
2026-05-25 09:17:36.638341,1779715056.638341,2205764,-1080926,164331855,9317,21913,22247,61,f39dfe00,0.0,0.0,0.0,0.0,0.0,0.0
2026-05-25 09:17:36.643921,1779715056.643921,2224723,-1056286,164344092,17671,-1404,37148,61,f39dfe00,0.0,0.0,0.0,0.0,0.0,0.0
2026-05-25 09:17:36.651030,1779715056.651030,2224723,-1056286,164344092,17671,-1404,37148,61,f39dfe00,0.0,0.0,0.0,0.0,0.0,0.0
2026-05-25 09:17:36.656546,1779715056.656546,2220908,-1093397,164333260,10131,-19693,54702,61,f39dfe00,0.0,0.0,0.0,0.0,0.0,0.0
2026-05-25 09:17:36.663759,1779715056.663759,2220908,-1093397,164333260,10131,-19693,54702,61,f39dfe00,0.0,0.0,0.0,0.0,0.0,0.0
2026-05-25 09:17:36.669516,1779715056.669516,2191784,-1190555,164334728,-16787,-60200,25502,61,f39dfe00,0.0,0.0,0.0,0.0,0.0,0.0
2026-05-25 09:17:36.680088,1779715056.680088,2191784,-1190555,164334728,-16787,-60200,25502,61,f39dfe00,0.0,0.0,0.0,0.0,0.0,0.0
2026-05-25 09:17:36.687692,1779715056.687692,2195354,-1293669,164320973,-33537,-67830,27712,61,f39dfe00,0.0,0.0,0.0,0.0,0.0,0.0
2026-05-25 09:17:36.694948,1779715056.694948,2195354,-1293669,164320973,-33537,-67830,27712,61,f39dfe00,0.0,0.0,0.0,0.0,0.0,0.0
2026-05-25 09:17:36.700524,1779715056.700524,2242528,-1392080,164330321,-49872,-94004,17490,61,f39dfe00,0.0,0.0,0.0,0.0,0.0,0.0
2026-05-25 09:17:36.707539,1779715056.707539,2242528,-1392080,164330321,-49872,-94004,17490,61,f39dfe00,0.0,0.0,0.0,0.0,0.0,0.0
2026-05-25 09:17:36.713030,1779715056.713030,2204600,-1416604,164372841,-57402,-80536,36207,61,f39dfe00,0.0,0.0,0.0,0.0,0.0,0.0
2026-05-25 09:17:36.720552,1779715056.720552,2204600,-1416604,164372841,-57402,-80536,36207,61,f39dfe00,0.0,0.0,0.0,0.0,0.0,0.0
2026-05-25 09:17:36.727517,1779715056.727517,2136957,-1356143,164365029,-49139,-70938,31768,61,f39dfe00,0.0,0.0,0.0,0.0,0.0,0.0
2026-05-25 09:17:36.735348,1779715056.735348,2136957,-1356143,164365029,-49139,-70938,31768,61,f39dfe00,0.0,0.0,0.0,0.0,0.0,0.0
2026-05-25 09:17:36.740989,1779715056.740989,2016403,-1279107,164348497,-48453,-81871,29976,61,f39dfe00,0.0,0.0,0.0,0.0,0.0,0.0
2026-05-25 09:17:36.748164,1779715056.748164,2016403,-1279107,164348497,-48453,-81871,29976,61,f39dfe00,0.0,0.0,0.0,0.0,0.0,0.0
2026-05-25 09:17:36.753827,1779715056.753827,2010319,-1214632,164296501,-38293,-123417,13032,61,f39dfe00,0.0,0.0,0.0,0.0,0.0,0.0
2026-05-25 09:17:36.760891,1779715056.760891,2010319,-1214632,164296501,-38293,-123417,13032,61,f39dfe00,0.0,0.0,0.0,0.0,0.0,0.0
2026-05-25 09:17:36.766484,1779715056.766484,2049610,-1175043,164320945,-42312,-174463,22580,61,f39dfe00,0.0,0.0,0.0,0.0,0.0,0.0
2026-05-25 09:17:36.773458,1779715056.773458,2049610,-1175043,164320945,-42312,-174463,22580,61,f39dfe00,0.0,0.0,0.0,0.0,0.0,0.0
2026-05-25 09:17:36.779011,1779715056.779011,2181792,-1144708,164319070,-37794,-203014,1456,61,f39dfe00,0.0,0.0,0.0,0.0,0.0,0.0
2026-05-25 09:17:36.786028,1779715056.786028,2181792,-1144708,164319070,-37794,-203014,1456,61,f39dfe00,0.0,0.0,0.0,0.0,0.0,0.0
2026-05-25 09:17:36.791714,1779715056.791714,2236600,-1150428,164363905,-54709,-212532,28644,61,f39dfe00,0.0,0.0,0.0,0.0,0.0,0.0
2026-05-25 09:17:36.805762,1779715056.805762,2236600,-1150428,164363905,-54709,-212532,28644,61,f39dfe00,0.0,0.0,0.0,0.0,0.0,0.0
2026-05-25 09:17:36.813293,1779715056.813293,2278371,-1250124,164395592,-60004,-199684,29232,61,f39dfe00,0.0,0.0,0.0,0.0,0.0,0.0
2026-05-25 09:17:36.820566,1779715056.820566,2278371,-1250124,164395592,-60004,-199684,29232,61,f39dfe00,0.0,0.0,0.0,0.0,0.0,0.0
2026-05-25 09:17:36.827037,1779715056.827037,2268852,-1347624,164446602,-67057,-195741,37401,61,f39dfe00,0.0,0.0,0.0,0.0,0.0,0.0
2026-05-25 09:17:36.861994,1779715056.861994,2268852,-1347624,164446602,-67057,-195741,37401,61,f39dfe00,0.0,0.0,0.0,0.0,0.0,0.0
2026-05-25 09:17:36.875286,1779715056.875286,2256383,-1446149,164446979,-43891,-179619,7680,61,f39dfe00,0.0,0.0,0.0,0.0,0.0,0.0
2026-05-25 09:17:36.894752,1779715056.894752,2256383,-1446149,164446979,-43891,-179619,7680,61,f39dfe00,0.0,0.0,0.0,0.0,0.0,0.0
2026-05-25 09:17:36.905000,1779715056.905000,2273564,-1434325,164467975,33549,-136410,816,61,f39dfe00,0.0,0.0,0.0,0.0,0.0,0.0
2026-05-25 09:17:36.915541,1779715056.915541,2273564,-1434325,164467975,33549,-136410,816,61,f39dfe00,0.0,0.0,0.0,0.0,0.0,0.0
2026-05-25 09:17:36.922866,1779715056.922866,2300623,-1412011,164484929,33039,-126690,10746,61,f39dfe00,0.0,0.0,0.0,0.0,0.0,0.0
2026-05-25 09:17:36.931979,1779715056.931979,2300623,-1412011,164484929,33039,-126690,10746,61,f39dfe00,0.0,0.0,0.0,0.0,0.0,0.0
2026-05-25 09:17:36.939156,1779715056.939156,2352152,-1295431,164495919,56364,-54389,-4760,61,f39dfe00,0.0,0.0,0.0,0.0,0.0,0.0
2026-05-25 09:17:36.948061,1779715056.948061,2352152,-1295431,164495919,56364,-54389,-4760,61,f39dfe00,0.0,0.0,0.0,0.0,0.0,0.0
2026-05-25 09:17:36.955010,1779715056.955010,2350502,-1182715,164490375,35598,-13941,-2544,61,f39dfe00,0.0,0.0,0.0,0.0,0.0,0.0
2026-05-25 09:17:36.963906,1779715056.963906,2350502,-1182715,164490375,35598,-13941,-2544,61,f39dfe00,0.0,0.0,0.0,0.0,0.0,0.0
2026-05-25 09:17:36.971199,1779715056.971199,2297758,-1122399,164412787,35691,23767,-146,61,f39dfe00,0.0,0.0,0.0,0.0,0.0,0.0
2026-05-25 09:17:36.980286,1779715056.980286,2297758,-1122399,164412787,35691,23767,-146,61,f39dfe00,0.0,0.0,0.0,0.0,0.0,0.0
2026-05-25 09:17:36.988602,1779715056.988602,2240976,-1132630,164360658,30220,17475,6232,61,f39dfe00,0.0,0.0,0.0,0.0,0.0,0.0
2026-05-25 09:17:36.997244,1779715056.997244,2240976,-1132630,164360658,30220,17475,6232,61,f39dfe00,0.0,0.0,0.0,0.0,0.0,0.0
2026-05-25 09:17:37.004271,1779715057.004271,2214224,-1184488,164299772,-6757,276,6842,61,f39dfe00,0.0,0.0,0.0,0.0,0.0,0.0
2026-05-25 09:17:37.013387,1779715057.013387,2214224,-1184488,164299772,-6757,276,6842,61,f39dfe00,0.0,0.0,0.0,0.0,0.0,0.0
2026-05-25 09:17:37.020895,1779715057.020895,2159056,-1205581,164333110,-10563,-30694,70,61,f39dfe00,0.0,0.0,0.0,0.0,0.0,0.0
2026-05-25 09:17:37.029689,1779715057.029689,2159056,-1205581,164333110,-10563,-30694,70,61,f39dfe00,0.0,0.0,0.0,0.0,0.0,0.0
2026-05-25 09:17:37.038739,1779715057.038739,2179449,-1276922,164314317,-24626,-17330,24057,61,f39dfe00,0.0,0.0,0.0,0.0,0.0,0.0
2026-05-25 09:17:37.047604,1779715057.047604,2179449,-1276922,164314317,-24626,-17330,24057,61,f39dfe00,0.0,0.0,0.0,0.0,0.0,0.0
2026-05-25 09:17:37.054258,1779715057.054258,2211968,-1303865,164365746,-11585,-25649,25448,61,f39dfe00,0.0,0.0,0.0,0.0,0.0,0.0
2026-05-25 09:17:37.062017,1779715057.062017,2211968,-1303865,164365746,-11585,-25649,25448,61,f39dfe00,0.0,0.0,0.0,0.0,0.0,0.0
2026-05-25 09:17:37.069115,1779715057.069115,2309706,-1371937,164358845,-38349,-20931,47953,61,f39dfe00,0.0,0.0,0.0,0.0,0.0,0.0
2026-05-25 09:17:37.078336,1779715057.078336,2309706,-1371937,164358845,-38349,-20931,47953,61,f39dfe00,0.0,0.0,0.0,0.0,0.0,0.0
2026-05-25 09:17:37.086066,1779715057.086066,2365817,-1417978,164373010,-39599,-20650,40140,61,f39dfe00,0.0,0.0,0.0,0.0,0.0,0.0
2026-05-25 09:17:37.094431,1779715057.094431,2365817,-1417978,164373010,-39599,-20650,40140,61,f39dfe00,0.0,0.0,0.0,0.0,0.0,0.0
2026-05-25 09:17:37.103930,1779715057.103930,2378364,-1345772,164436266,-56347,-1945,41403,61,f39dfe00,0.0,0.0,0.0,0.0,0.0,0.0
2026-05-25 09:17:37.112254,1779715057.112254,2378364,-1345772,164436266,-56347,-1945,41403,61,f39dfe00,0.0,0.0,0.0,0.0,0.0,0.0
2026-05-25 09:17:37.119356,1779715057.119356,2349233,-1314343,164461548,-41151,64574,27059,61,f39dfe00,0.0,0.0,0.0,0.0,0.0,0.0
2026-05-25 09:17:37.128265,1779715057.128265,2349233,-1314343,164461548,-41151,64574,27059,61,f39dfe00,0.0,0.0,0.0,0.0,0.0,0.0
2026-05-25 09:17:37.135702,1779715057.135702,2373339,-1181018,164535641,-36032,109830,21836,61,f39dfe00,0.0,0.0,0.0,0.0,0.0,0.0
2026-05-25 09:17:37.144131,1779715057.144131,2373339,-1181018,164535641,-36032,109830,21836,61,f39dfe00,0.0,0.0,0.0,0.0,0.0,0.0
2026-05-25 09:17:37.154176,1779715057.154176,2333210,-1148067,164511340,-33949,155691,29353,61,f39dfe00,0.0,0.0,0.0,0.0,0.0,0.0
2026-05-25 09:17:37.163198,1779715057.163198,2333210,-1148067,164511340,-33949,155691,29353,61,f39dfe00,0.0,0.0,0.0,0.0,0.0,0.0
2026-05-25 09:17:37.170824,1779715057.170824,2290307,-1122626,164496565,-47996,176303,46428,61,f39dfe00,0.0,0.0,0.0,0.0,0.0,0.0
2026-05-25 09:17:37.179425,1779715057.179425,2290307,-1122626,164496565,-47996,176303,46428,61,f39dfe00,0.0,0.0,0.0,0.0,0.0,0.0
2026-05-25 09:17:37.187947,1779715057.187947,2249881,-1191952,164450507,-39396,173334,53754,61,f39dfe00,0.0,0.0,0.0,0.0,0.0,0.0
2026-05-25 09:17:37.204472,1779715057.204472,2249881,-1191952,164450507,-39396,173334,53754,61,f39dfe00,0.0,0.0,0.0,0.0,0.0,0.0
2026-05-25 09:17:37.214765,1779715057.214765,2252534,-1259579,164428049,-6419,204493,71486,61,f39cfe00,0.0,0.0,0.0,0.0,0.0,0.0
2026-05-25 09:17:37.228227,1779715057.228227,2252534,-1259579,164428049,-6419,204493,71486,61,f39cfe00,0.0,0.0,0.0,0.0,0.0,0.0
2026-05-25 09:17:37.239973,1779715057.239973,2321091,-1341892,164440829,17614,211080,41631,61,f39dfe00,0.0,0.0,0.0,0.0,0.0,0.0
2026-05-25 09:17:37.250010,1779715057.250010,2321091,-1341892,164440829,17614,211080,41631,61,f39dfe00,0.0,0.0,0.0,0.0,0.0,0.0
2026-05-25 09:17:37.263959,1779715057.263959,2340928,-1352266,164437698,24178,227164,40038,61,f39dfe00,0.0,0.0,0.0,0.0,0.0,0.0
2026-05-25 09:17:37.281430,1779715057.281430,2340928,-1352266,164437698,24178,227164,40038,61,f39dfe00,0.0,0.0,0.0,0.0,0.0,0.0
2026-05-25 09:17:37.292420,1779715057.292420,2410901,-1385593,164431760,9969,233643,54555,61,f39dfe00,0.0,0.0,0.0,0.0,0.0,0.0
2026-05-25 09:17:37.301593,1779715057.301593,2410901,-1385593,164431760,9969,233643,54555,61,f39dfe00,0.0,0.0,0.0,0.0,0.0,0.0
2026-05-25 09:17:37.316068,1779715057.316068,2329190,-1365860,164461301,17599,219063,60311,61,f39dfe00,0.0,0.0,0.0,0.0,0.0,0.0
2026-05-25 09:17:37.333648,1779715057.333648,2329190,-1365860,164461301,17599,219063,60311,61,f39dfe00,0.0,0.0,0.0,0.0,0.0,0.0
2026-05-25 09:17:37.347562,1779715057.347562,2289142,-1314219,164460854,5633,201587,78225,61,f39dfe00,0.0,0.0,0.0,0.0,0.0,0.0
2026-05-25 09:17:37.363681,1779715057.363681,2289142,-1314219,164460854,5633,201587,78225,61,f39dfe00,0.0,0.0,0.0,0.0,0.0,0.0
2026-05-25 09:17:37.371391,1779715057.371391,2212365,-1261671,164411957,-1285,208618,65645,61,f39dfe00,0.0,0.0,0.0,0.0,0.0,0.0
2026-05-25 09:17:37.380223,1779715057.380223,2212365,-1261671,164411957,-1285,208618,65645,61,f39dfe00,0.0,0.0,0.0,0.0,0.0,0.0
2026-05-25 09:17:37.387791,1779715057.387791,2187157,-1186569,164355318,642,201091,52399,61,f39dfe00,0.0,0.0,0.0,0.0,0.0,0.0
2026-05-25 09:17:37.402536,1779715057.402536,2187157,-1186569,164355318,642,201091,52399,61,f39dfe00,0.0,0.0,0.0,0.0,0.0,0.0
2026-05-25 09:17:37.409908,1779715057.409908,2148615,-1126831,164292948,12859,216041,34764,61,f39dfe00,0.0,0.0,0.0,0.0,0.0,0.0
2026-05-25 09:17:37.419401,1779715057.419401,2148615,-1126831,164292948,12859,216041,34764,61,f39dfe00,0.0,0.0,0.0,0.0,0.0,0.0
2026-05-25 09:17:37.432845,1779715057.432845,2086334,-1123319,164271711,44304,170717,5071,61,f39dfe00,0.0,0.0,0.0,0.0,0.0,0.0
2026-05-25 09:17:37.450334,1779715057.450334,2086334,-1123319,164271711,44304,170717,5071,61,f39dfe00,0.0,0.0,0.0,0.0,0.0,0.0
2026-05-25 09:17:37.463458,1779715057.463458,2077843,-1189009,164268621,39608,153409,31412,61,f39dfe00,0.0,0.0,0.0,0.0,0.0,0.0
2026-05-25 09:17:37.473804,1779715057.473804,2077843,-1189009,164268621,39608,153409,31412,61,f39dfe00,0.0,0.0,0.0,0.0,0.0,0.0
2026-05-25 09:17:37.485317,1779715057.485317,2085964,-1233618,164246431,34562,92585,20809,61,f39dfe00,0.0,0.0,0.0,0.0,0.0,0.0
2026-05-25 09:17:37.494285,1779715057.494285,2085964,-1233618,164246431,34562,92585,20809,61,f39dfe00,0.0,0.0,0.0,0.0,0.0,0.0
2026-05-25 09:17:37.501570,1779715057.501570,2123059,-1330994,164253826,15070,68621,48560,61,f39dfe00,0.0,0.0,0.0,0.0,0.0,0.0
2026-05-25 09:17:37.511136,1779715057.511136,2123059,-1330994,164253826,15070,68621,48560,61,f39dfe00,0.0,0.0,0.0,0.0,0.0,0.0
2026-05-25 09:17:37.519456,1779715057.519456,2183939,-1305425,164307968,25796,16108,62457,61,f39dfe00,0.0,0.0,0.0,0.0,0.0,0.0
2026-05-25 09:17:37.528646,1779715057.528646,2183939,-1305425,164307968,25796,16108,62457,61,f39dfe00,0.0,0.0,0.0,0.0,0.0,0.0
2026-05-25 09:17:37.535530,1779715057.535530,2250260,-1348708,164300023,39931,12068,63759,61,f39dfe00,0.0,0.0,0.0,0.0,0.0,0.0
2026-05-25 09:17:37.544490,1779715057.544490,2250260,-1348708,164300023,39931,12068,63759,61,f39dfe00,0.0,0.0,0.0,0.0,0.0,0.0
2026-05-25 09:17:37.553111,1779715057.553111,2345567,-1324929,164301584,24943,-12078,45425,61,f39dfe00,0.0,0.0,0.0,0.0,0.0,0.0
2026-05-25 09:17:37.562523,1779715057.562523,2345567,-1324929,164301584,24943,-12078,45425,61,f39dfe00,0.0,0.0,0.0,0.0,0.0,0.0
2026-05-25 09:17:37.569565,1779715057.569565,2346756,-1341498,164368990,-7620,-30624,28684,61,f39dfe00,0.0,0.0,0.0,0.0,0.0,0.0
2026-05-25 09:17:37.578494,1779715057.578494,2346756,-1341498,164368990,-7620,-30624,28684,61,f39dfe00,0.0,0.0,0.0,0.0,0.0,0.0
2026-05-25 09:17:37.585898,1779715057.585898,2243690,-1306738,164426752,-61038,-33754,33948,61,f39dfe00,0.0,0.0,0.0,0.0,0.0,0.0
2026-05-25 09:17:37.594853,1779715057.594853,2243690,-1306738,164426752,-61038,-33754,33948,61,f39dfe00,0.0,0.0,0.0,0.0,0.0,0.0
2026-05-25 09:17:37.601849,1779715057.601849,2173915,-1297553,164504601,-34700,-8852,45387,61,f39dfe00,0.0,0.0,0.0,0.0,0.0,0.0
2026-05-25 09:17:37.610366,1779715057.610366,2173915,-1297553,164504601,-34700,-8852,45387,61,f39dfe00,0.0,0.0,0.0,0.0,0.0,0.0
2026-05-25 09:17:37.617428,1779715057.617428,2175249,-1217080,164450341,-28548,20733,45860,61,f39dfe00,0.0,0.0,0.0,0.0,0.0,0.0
2026-05-25 09:17:37.626078,1779715057.626078,2175249,-1217080,164450341,-28548,20733,45860,61,f39dfe00,0.0,0.0,0.0,0.0,0.0,0.0
2026-05-25 09:17:37.632683,1779715057.632683,2293881,-1172653,164441293,-41855,19061,35978,61,f39dfe00,0.0,0.0,0.0,0.0,0.0,0.0
2026-05-25 09:17:37.640532,1779715057.640532,2293881,-1172653,164441293,-41855,19061,35978,61,f39dfe00,0.0,0.0,0.0,0.0,0.0,0.0
2026-05-25 09:17:37.646857,1779715057.646857,2328632,-1095447,164401397,-51521,1794,61722,61,f39dfe00,0.0,0.0,0.0,0.0,0.0,0.0
2026-05-25 09:17:37.655385,1779715057.655385,2328632,-1095447,164401397,-51521,1794,61722,61,f39dfe00,0.0,0.0,0.0,0.0,0.0,0.0
2026-05-25 09:17:37.662983,1779715057.662983,2266136,-1118372,164405685,-46331,52206,66740,61,f39dfe00,0.0,0.0,0.0,0.0,0.0,0.0
2026-05-25 09:17:37.671562,1779715057.671562,2266136,-1118372,164405685,-46331,52206,66740,61,f39dfe00,0.0,0.0,0.0,0.0,0.0,0.0
2026-05-25 09:17:37.679032,1779715057.679032,2194839,-1185320,164320175,-19355,29400,61210,61,f39cfe00,0.0,0.0,0.0,0.0,0.0,0.0
2026-05-25 09:17:37.688473,1779715057.688473,2194839,-1185320,164320175,-19355,29400,61210,61,f39cfe00,0.0,0.0,0.0,0.0,0.0,0.0
2026-05-25 09:17:37.696289,1779715057.696289,2133963,-1309215,164352343,460,40112,32229,61,f39cfe00,0.0,0.0,0.0,0.0,0.0,0.0
2026-05-25 09:17:37.712619,1779715057.712619,2133963,-1309215,164352343,460,40112,32229,61,f39cfe00,0.0,0.0,0.0,0.0,0.0,0.0
2026-05-25 09:17:37.726545,1779715057.726545,2142138,-1377002,164292749,-21112,-19400,39937,61,f39cfe00,0.0,0.0,0.0,0.0,0.0,0.0
2026-05-25 09:17:37.743164,1779715057.743164,2142138,-1377002,164292749,-21112,-19400,39937,61,f39cfe00,0.0,0.0,0.0,0.0,0.0,0.0
2026-05-25 09:17:37.753294,1779715057.753294,2135368,-1426398,164372418,-22795,5331,54911,61,f39cfe00,0.0,0.0,0.0,0.0,0.0,0.0
2026-05-25 09:17:37.762929,1779715057.762929,2135368,-1426398,164372418,-22795,5331,54911,61,f39cfe00,0.0,0.0,0.0,0.0,0.0,0.0
2026-05-25 09:17:37.774850,1779715057.774850,2132727,-1339524,164351037,-32654,-25273,62946,61,f39cfe00,0.0,0.0,0.0,0.0,0.0,0.0
2026-05-25 09:17:37.791678,1779715057.791678,2132727,-1339524,164351037,-32654,-25273,62946,61,f39cfe00,0.0,0.0,0.0,0.0,0.0,0.0
2026-05-25 09:17:37.802813,1779715057.802813,2166340,-1278839,164373043,-9002,-11129,31429,61,f39cfe00,0.0,0.0,0.0,0.0,0.0,0.0
2026-05-25 09:17:37.812263,1779715057.812263,2166340,-1278839,164373043,-9002,-11129,31429,61,f39cfe00,0.0,0.0,0.0,0.0,0.0,0.0
2026-05-25 09:17:37.820052,1779715057.820052,2197433,-1211495,164418143,-1382,-9473,19857,61,f39cfe00,0.0,0.0,0.0,0.0,0.0,0.0
2026-05-25 09:17:37.829949,1779715057.829949,2197433,-1211495,164418143,-1382,-9473,19857,61,f39cfe00,0.0,0.0,0.0,0.0,0.0,0.0
2026-05-25 09:17:37.839158,1779715057.839158,2239232,-1180963,164449076,7776,6725,-6311,61,f39cfe00,0.0,0.0,0.0,0.0,0.0,0.0
2026-05-25 09:17:37.849847,1779715057.849847,2239232,-1180963,164449076,7776,6725,-6311,61,f39cfe00,0.0,0.0,0.0,0.0,0.0,0.0
2026-05-25 09:17:37.856974,1779715057.856974,2245940,-1208774,164485344,19272,31850,-2838,61,f39cfe00,0.0,0.0,0.0,0.0,0.0,0.0
2026-05-25 09:17:37.873580,1779715057.873580,2245940,-1208774,164485344,19272,31850,-2838,61,f39cfe00,0.0,0.0,0.0,0.0,0.0,0.0
2026-05-25 09:17:37.884312,1779715057.884312,2241990,-1227214,164378272,38371,37981,26371,61,f39cfe00,0.0,0.0,0.0,0.0,0.0,0.0
2026-05-25 09:17:37.894472,1779715057.894472,2241990,-1227214,164378272,38371,37981,26371,61,f39cfe00,0.0,0.0,0.0,0.0,0.0,0.0
2026-05-25 09:17:37.902961,1779715057.902961,2165720,-1284003,164321390,18463,44987,19971,61,f39dfe00,0.0,0.0,0.0,0.0,0.0,0.0
2026-05-25 09:17:37.913353,1779715057.913353,2165720,-1284003,164321390,18463,44987,19971,61,f39dfe00,0.0,0.0,0.0,0.0,0.0,0.0
2026-05-25 09:17:37.921937,1779715057.921937,2059017,-1321160,164232109,20385,-18489,39038,61,f39dfe00,0.0,0.0,0.0,0.0,0.0,0.0
2026-05-25 09:17:37.931010,1779715057.931010,2059017,-1321160,164232109,20385,-18489,39038,61,f39dfe00,0.0,0.0,0.0,0.0,0.0,0.0
2026-05-25 09:17:37.938475,1779715057.938475,2017755,-1346654,164267374,20502,-72732,10463,61,f39dfe00,0.0,0.0,0.0,0.0,0.0,0.0
2026-05-25 09:17:37.947226,1779715057.947226,2017755,-1346654,164267374,20502,-72732,10463,61,f39dfe00,0.0,0.0,0.0,0.0,0.0,0.0
2026-05-25 09:17:37.954648,1779715057.954648,2071089,-1356691,164254042,45596,-141608,11175,61,f39dfe00,0.0,0.0,0.0,0.0,0.0,0.0
2026-05-25 09:17:37.963372,1779715057.963372,2071089,-1356691,164254042,45596,-141608,11175,61,f39dfe00,0.0,0.0,0.0,0.0,0.0,0.0
2026-05-25 09:17:37.970790,1779715057.970790,2186810,-1277661,164270647,43593,-166427,-18955,61,f39cfe00,0.0,0.0,0.0,0.0,0.0,0.0
2026-05-25 09:17:37.979435,1779715057.979435,2186810,-1277661,164270647,43593,-166427,-18955,61,f39cfe00,0.0,0.0,0.0,0.0,0.0,0.0
2026-05-25 09:17:37.986715,1779715057.986715,2215218,-1186535,164282710,29429,-201324,-44630,61,f39cfe00,0.0,0.0,0.0,0.0,0.0,0.0
2026-05-25 09:17:37.995225,1779715057.995225,2215218,-1186535,164282710,29429,-201324,-44630,61,f39cfe00,0.0,0.0,0.0,0.0,0.0,0.0
2026-05-25 09:17:38.002188,1779715058.002188,2215405,-1060428,164302256,-34616,-228722,-53260,61,f39cfe00,0.0,0.0,0.0,0.0,0.0,0.0
2026-05-25 09:17:38.010848,1779715058.010848,2215405,-1060428,164302256,-34616,-228722,-53260,61,f39cfe00,0.0,0.0,0.0,0.0,0.0,0.0
2026-05-25 09:17:38.018150,1779715058.018150,2151100,-1019935,164248258,-51962,-269003,-45718,61,f39cfe00,0.0,0.0,0.0,0.0,0.0,0.0
2026-05-25 09:17:38.027110,1779715058.027110,2151100,-1019935,164248258,-51962,-269003,-45718,61,f39cfe00,0.0,0.0,0.0,0.0,0.0,0.0
2026-05-25 09:17:38.034459,1779715058.034459,2190939,-1037425,164219688,-82691,-295454,-62782,61,f39dfe00,0.0,0.0,0.0,0.0,0.0,0.0
2026-05-25 09:17:38.042582,1779715058.042582,2190939,-1037425,164219688,-82691,-295454,-62782,61,f39dfe00,0.0,0.0,0.0,0.0,0.0,0.0
2026-05-25 09:17:38.049717,1779715058.049717,2121454,-1118004,164210615,-95910,-349671,-81036,61,f39dfe00,0.0,0.0,0.0,0.0,0.0,0.0
2026-05-25 09:17:38.057717,1779715058.057717,2121454,-1118004,164210615,-95910,-349671,-81036,61,f39dfe00,0.0,0.0,0.0,0.0,0.0,0.0
2026-05-25 09:17:38.083288,1779715058.083288,2085727,-1213107,164265024,-91339,-381781,-87075,61,f39dfe00,0.0,0.0,0.0,0.0,0.0,0.0
2026-05-25 09:17:38.123693,1779715058.123693,2085727,-1213107,164265024,-91339,-381781,-87075,61,f39dfe00,0.0,0.0,0.0,0.0,0.0,0.0
2026-05-25 09:17:38.130429,1779715058.130429,2085127,-1311573,164360113,-100034,-397107,-62279,61,f39dfe00,0.0,0.0,0.0,0.0,0.0,0.0
2026-05-25 09:17:38.138979,1779715058.138979,2085127,-1311573,164360113,-100034,-397107,-62279,61,f39dfe00,0.0,0.0,0.0,0.0,0.0,0.0
2026-05-25 09:17:38.171295,1779715058.171295,2158045,-1340271,164414591,-104725,-401258,-49755,61,f39dfe00,0.0,0.0,0.0,0.0,0.0,0.0
2026-05-25 09:17:38.182845,1779715058.182845,2158045,-1340271,164414591,-104725,-401258,-49755,61,f39dfe00,0.0,0.0,0.0,0.0,0.0,0.0
2026-05-25 09:17:38.673157,1779715058.673157,2309453,-1431981,164482334,-109218,-348997,-36506,61,f39cfe00,0.0,0.0,0.0,0.0,0.0,0.0
2026-05-25 09:17:38.681113,1779715058.681113,2309453,-1431981,164482334,-109218,-348997,-36506,61,f39cfe00,0.0,0.0,0.0,0.0,0.0,0.0
2026-05-25 09:17:38.692539,1779715058.692539,2433359,-1417487,164497521,-66234,-306233,-31089,61,f39cfe00,0.0,0.0,0.0,0.0,0.0,0.0
2026-05-25 09:17:38.699713,1779715058.699713,2433359,-1417487,164497521,-66234,-306233,-31089,61,f39cfe00,0.0,0.0,0.0,0.0,0.0,0.0
2026-05-25 09:17:38.712870,1779715058.712870,2487032,-1384908,164494549,-51915,-229562,-37057,61,f39cfe00,0.0,0.0,0.0,0.0,0.0,0.0
2026-05-25 09:17:38.721737,1779715058.721737,2487032,-1384908,164494549,-51915,-229562,-37057,61,f39cfe00,0.0,0.0,0.0,0.0,0.0,0.0
2026-05-25 09:17:38.739813,1779715058.739813,2407015,-1333719,164486784,-41518,-196870,-27930,61,f39cfe00,0.0,0.0,0.0,0.0,0.0,0.0
2026-05-25 09:17:38.779878,1779715058.779878,2407015,-1333719,164486784,-41518,-196870,-27930,61,f39cfe00,0.0,0.0,0.0,0.0,0.0,0.0
2026-05-25 09:17:38.807829,1779715058.807829,2353774,-1341463,164495317,-23442,-164663,-30324,61,f39cfe00,0.0,0.0,0.0,0.0,0.0,0.0
2026-05-25 09:17:38.823803,1779715058.823803,2353774,-1341463,164495317,-23442,-164663,-30324,61,f39cfe00,0.0,0.0,0.0,0.0,0.0,0.0
2026-05-25 09:17:38.836675,1779715058.836675,2327931,-1268921,164519659,17613,-102290,-4026,61,f39cfe00,0.0,0.0,0.0,0.0,0.0,0.0
2026-05-25 09:17:38.852449,1779715058.852449,2327931,-1268921,164519659,17613,-102290,-4026,61,f39cfe00,0.0,0.0,0.0,0.0,0.0,0.0
2026-05-25 09:17:38.872657,1779715058.872657,2363984,-1239898,164496211,28024,-48475,-4384,61,f39cfe00,0.0,0.0,0.0,0.0,0.0,0.0
2026-05-25 09:17:38.889933,1779715058.889933,2363984,-1239898,164496211,28024,-48475,-4384,61,f39cfe00,0.0,0.0,0.0,0.0,0.0,0.0
2026-05-25 09:17:38.903746,1779715058.903746,2376964,-1195980,164477674,15533,-5437,16308,61,f39cfe00,0.0,0.0,0.0,0.0,0.0,0.0
2026-05-25 09:17:38.918720,1779715058.918720,2376964,-1195980,164477674,15533,-5437,16308,61,f39cfe00,0.0,0.0,0.0,0.0,0.0,0.0
2026-05-25 09:17:38.930510,1779715058.930510,2313960,-1215150,164412522,19165,26433,42628,61,f39cfe00,0.0,0.0,0.0,0.0,0.0,0.0
2026-05-25 09:17:38.942052,1779715058.942052,2313960,-1215150,164412522,19165,26433,42628,61,f39cfe00,0.0,0.0,0.0,0.0,0.0,0.0
2026-05-25 09:17:38.952271,1779715058.952271,2267385,-1194474,164372687,10686,20643,50514,61,f39cfe00,0.0,0.0,0.0,0.0,0.0,0.0
2026-05-25 09:17:38.968755,1779715058.968755,2267385,-1194474,164372687,10686,20643,50514,61,f39cfe00,0.0,0.0,0.0,0.0,0.0,0.0
2026-05-25 09:17:38.988577,1779715058.988577,2253806,-1253940,164392200,20429,5106,29674,61,f39cfe00,0.0,0.0,0.0,0.0,0.0,0.0
2026-05-25 09:17:39.004960,1779715059.004960,2253806,-1253940,164392200,20429,5106,29674,61,f39cfe00,0.0,0.0,0.0,0.0,0.0,0.0
2026-05-25 09:17:39.013085,1779715059.013085,2344083,-1270571,164389197,36932,-20435,11815,61,f39dfe00,0.0,0.0,0.0,0.0,0.0,0.0
2026-05-25 09:17:39.022378,1779715059.022378,2344083,-1270571,164389197,36932,-20435,11815,61,f39dfe00,0.0,0.0,0.0,0.0,0.0,0.0
2026-05-25 09:17:39.033462,1779715059.033462,2401766,-1369603,164422809,44900,-12544,15222,61,f39cfe00,0.0,0.0,0.0,0.0,0.0,0.0
2026-05-25 09:17:39.050119,1779715059.050119,2401766,-1369603,164422809,44900,-12544,15222,61,f39cfe00,0.0,0.0,0.0,0.0,0.0,0.0
2026-05-25 09:17:39.059951,1779715059.059951,2426099,-1428060,164448147,49624,5645,37963,61,f39cfe00,0.0,0.0,0.0,0.0,0.0,0.0
2026-05-25 09:17:39.069541,1779715059.069541,2426099,-1428060,164448147,49624,5645,37963,61,f39cfe00,0.0,0.0,0.0,0.0,0.0,0.0
2026-05-25 09:17:39.090032,1779715059.090032,2357672,-1410749,164436997,58634,43096,37332,61,f39cfe00,0.0,0.0,0.0,0.0,0.0,0.0
2026-05-25 09:17:39.104773,1779715059.104773,2357672,-1410749,164436997,58634,43096,37332,61,f39cfe00,0.0,0.0,0.0,0.0,0.0,0.0
2026-05-25 09:17:39.114234,1779715059.114234,2247127,-1372465,164379971,72570,44578,19747,61,f39cfe00,0.0,0.0,0.0,0.0,0.0,0.0
2026-05-25 09:17:39.123174,1779715059.123174,2247127,-1372465,164379971,72570,44578,19747,61,f39cfe00,0.0,0.0,0.0,0.0,0.0,0.0
