sys_datetime,unix_timestamp,raw_accel_x_lsb,raw_accel_y_lsb,raw_accel_z_lsb,raw_gyro_x_lsb,raw_gyro_y_lsb,raw_gyro_z_lsb,imu_type,imu_status_hex,veh_lat_acc_ms2,veh_long_acc_ms2,veh_vert_acc_ms2,veh_pitch_rate_degs,veh_roll_rate_degs,veh_yaw_rate_degs
2026-05-22 16:35:23.653990,1779482123.653990,-272326,-169188,164355267,67290,61177,-15958,61,eae9fe00,,,,,,
2026-05-22 16:35:23.656715,1779482123.656715,-272326,-169188,164355267,67290,61177,-15958,61,eae9fe00,0.0,0.0,0.0,0.0,0.0,0.0
2026-05-22 16:35:23.658513,1779482123.658513,-248847,-202301,164378360,46145,47045,-23477,61,eae9fe00,0.0,0.0,0.0,0.0,0.0,0.0
2026-05-22 16:35:23.660661,1779482123.660661,-248847,-202301,164378360,46145,47045,-23477,61,eae9fe00,0.0,0.0,0.0,0.0,0.0,0.0
2026-05-22 16:35:23.662491,1779482123.662491,-262777,-156701,164394290,53085,59027,-19510,61,eae9fe00,0.0,0.0,0.0,0.0,0.0,0.0
2026-05-22 16:35:23.664778,1779482123.664778,-262777,-156701,164394290,53085,59027,-19510,61,eae9fe00,0.0,0.0,0.0,0.0,0.0,0.0
2026-05-22 16:35:23.666594,1779482123.666594,-299562,-172827,164414726,43903,37468,-37349,61,eae9fe00,0.0,0.0,0.0,0.0,0.0,0.0
2026-05-22 16:35:23.671530,1779482123.671530,-299562,-172827,164414726,43903,37468,-37349,61,eae9fe00,0.0,0.0,0.0,0.0,0.0,0.0
2026-05-22 16:35:23.673372,1779482123.673372,-303373,-158081,164369969,65480,38286,-44952,61,eae9fe00,0.0,0.0,0.0,0.0,0.0,0.0
2026-05-22 16:35:23.675697,1779482123.675697,-303373,-158081,164369969,65480,38286,-44952,61,eae9fe00,0.0,0.0,0.0,0.0,0.0,0.0
2026-05-22 16:35:23.676894,1779482123.676894,-309618,-155307,164375514,81324,53334,-27850,61,eae9fe00,0.0,0.0,0.0,0.0,0.0,0.0
2026-05-22 16:35:23.678520,1779482123.678520,-309618,-155307,164375514,81324,53334,-27850,61,eae9fe00,0.0,0.0,0.0,0.0,0.0,0.0
2026-05-22 16:35:23.679493,1779482123.679493,-351664,-170291,164368947,83927,40526,-16314,61,eae9fe00,0.0,0.0,0.0,0.0,0.0,0.0
2026-05-22 16:35:23.680538,1779482123.680538,-351664,-170291,164368947,83927,40526,-16314,61,eae9fe00,0.0,0.0,0.0,0.0,0.0,0.0
2026-05-22 16:35:23.682003,1779482123.682003,-351664,-170291,164368947,83927,40526,-16314,61,eae9fe00,0.0,0.0,0.0,0.0,0.0,0.0
2026-05-22 16:35:23.682662,1779482123.682662,-344262,-171226,164415713,102679,34592,-20473,61,eae9fe00,0.0,0.0,0.0,0.0,0.0,0.0
2026-05-22 16:35:23.683531,1779482123.683531,-317062,-194904,164393751,89113,38816,-40929,61,eae9fe00,0.0,0.0,0.0,0.0,0.0,0.0
2026-05-22 16:35:23.684664,1779482123.684664,-317062,-194904,164393751,89113,38816,-40929,61,eae9fe00,0.0,0.0,0.0,0.0,0.0,0.0
2026-05-22 16:35:23.685715,1779482123.685715,-260470,-168892,164383490,85371,78014,-57317,61,eae9fe00,0.0,0.0,0.0,0.0,0.0,0.0
2026-05-22 16:35:23.687011,1779482123.687011,-260470,-168892,164383490,85371,78014,-57317,61,eae9fe00,0.0,0.0,0.0,0.0,0.0,0.0
2026-05-22 16:35:23.688010,1779482123.688010,-274608,-161497,164378572,73563,73459,-54287,61,eae9fe00,0.0,0.0,0.0,0.0,0.0,0.0
2026-05-22 16:35:23.689135,1779482123.689135,-274608,-161497,164378572,73563,73459,-54287,61,eae9fe00,0.0,0.0,0.0,0.0,0.0,0.0
2026-05-22 16:35:23.690068,1779482123.690068,-299956,-132851,164406041,61516,72608,-63129,61,eae9fe00,0.0,0.0,0.0,0.0,0.0,0.0
2026-05-22 16:35:23.691604,1779482123.691604,-299956,-132851,164406041,61516,72608,-63129,61,eae9fe00,0.0,0.0,0.0,0.0,0.0,0.0
2026-05-22 16:35:23.692715,1779482123.692715,-338812,-142315,164438767,71389,44722,-55592,61,eae9fe00,0.0,0.0,0.0,0.0,0.0,0.0
2026-05-22 16:35:23.693814,1779482123.693814,-338812,-142315,164438767,71389,44722,-55592,61,eae9fe00,0.0,0.0,0.0,0.0,0.0,0.0
2026-05-22 16:35:23.694700,1779482123.694700,-336872,-161800,164470260,56312,48496,-53890,61,eae9fe00,0.0,0.0,0.0,0.0,0.0,0.0
2026-05-22 16:35:23.697277,1779482123.697277,-336872,-161800,164470260,56312,48496,-53890,61,eae9fe00,0.0,0.0,0.0,0.0,0.0,0.0
2026-05-22 16:35:23.698202,1779482123.698202,-338853,-165603,164473268,69917,41068,-23921,61,eae9fe00,0.0,0.0,0.0,0.0,0.0,0.0
2026-05-22 16:35:23.699466,1779482123.699466,-338853,-165603,164473268,69917,41068,-23921,61,eae9fe00,0.0,0.0,0.0,0.0,0.0,0.0
2026-05-22 16:35:23.700422,1779482123.700422,-303175,-149136,164446328,41321,24859,-24468,61,eae9fe00,0.0,0.0,0.0,0.0,0.0,0.0
2026-05-22 16:35:23.701612,1779482123.701612,-303175,-149136,164446328,41321,24859,-24468,61,eae9fe00,0.0,0.0,0.0,0.0,0.0,0.0
2026-05-22 16:35:23.702529,1779482123.702529,-291577,-122929,164395505,48796,12730,-13977,61,eae9fe00,0.0,0.0,0.0,0.0,0.0,0.0
2026-05-22 16:35:23.703807,1779482123.703807,-291577,-122929,164395505,48796,12730,-13977,61,eae9fe00,0.0,0.0,0.0,0.0,0.0,0.0
2026-05-22 16:35:23.704798,1779482123.704798,-269887,-127795,164405393,44601,25919,-18180,61,eae9fe00,0.0,0.0,0.0,0.0,0.0,0.0
2026-05-22 16:35:23.705935,1779482123.705935,-269887,-127795,164405393,44601,25919,-18180,61,eae9fe00,0.0,0.0,0.0,0.0,0.0,0.0
2026-05-22 16:35:23.706910,1779482123.706910,-233568,-148386,164418680,61852,33423,-16781,61,eae9fe00,0.0,0.0,0.0,0.0,0.0,0.0
2026-05-22 16:35:23.708834,1779482123.708834,-233568,-148386,164418680,61852,33423,-16781,61,eae9fe00,0.0,0.0,0.0,0.0,0.0,0.0
2026-05-22 16:35:23.711142,1779482123.711142,-227847,-174257,164432117,79948,43099,-36064,61,eae9fe00,0.0,0.0,0.0,0.0,0.0,0.0
2026-05-22 16:35:23.714481,1779482123.714481,-227847,-174257,164432117,79948,43099,-36064,61,eae9fe00,0.0,0.0,0.0,0.0,0.0,0.0
2026-05-22 16:35:23.716498,1779482123.716498,-237042,-131529,164415976,75217,36499,-49159,61,eae9fe00,0.0,0.0,0.0,0.0,0.0,0.0
2026-05-22 16:35:23.719214,1779482123.719214,-237042,-131529,164415976,75217,36499,-49159,61,eae9fe00,0.0,0.0,0.0,0.0,0.0,0.0
2026-05-22 16:35:23.721374,1779482123.721374,-320805,-125498,164407917,92313,44856,-79536,61,eae9fe00,0.0,0.0,0.0,0.0,0.0,0.0
2026-05-22 16:35:23.724178,1779482123.724178,-320805,-125498,164407917,92313,44856,-79536,61,eae9fe00,0.0,0.0,0.0,0.0,0.0,0.0
2026-05-22 16:35:23.726665,1779482123.726665,-331673,-106957,164418772,64690,37442,-73828,61,eae9fe00,0.0,0.0,0.0,0.0,0.0,0.0
2026-05-22 16:35:23.728856,1779482123.728856,-331673,-106957,164418772,64690,37442,-73828,61,eae9fe00,0.0,0.0,0.0,0.0,0.0,0.0
2026-05-22 16:35:23.730066,1779482123.730066,-341648,-100903,164430851,57021,26148,-43711,61,eae9fe00,0.0,0.0,0.0,0.0,0.0,0.0
2026-05-22 16:35:23.733060,1779482123.733060,-341648,-100903,164430851,57021,26148,-43711,61,eae9fe00,0.0,0.0,0.0,0.0,0.0,0.0
2026-05-22 16:35:23.734723,1779482123.734723,-322333,-91384,164415247,52331,40713,-39668,61,eae9fe00,0.0,0.0,0.0,0.0,0.0,0.0
2026-05-22 16:35:23.736047,1779482123.736047,-322333,-91384,164415247,52331,40713,-39668,61,eae9fe00,0.0,0.0,0.0,0.0,0.0,0.0
2026-05-22 16:35:23.737058,1779482123.737058,-365642,-94427,164427733,43479,42278,-23433,61,eae9fe00,0.0,0.0,0.0,0.0,0.0,0.0
2026-05-22 16:35:23.738410,1779482123.738410,-365642,-94427,164427733,43479,42278,-23433,61,eae9fe00,0.0,0.0,0.0,0.0,0.0,0.0
2026-05-22 16:35:23.739788,1779482123.739788,-331675,-120100,164407733,49801,45331,-36189,61,eae8fe00,0.0,0.0,0.0,0.0,0.0,0.0
2026-05-22 16:35:23.742747,1779482123.742747,-331675,-120100,164407733,49801,45331,-36189,61,eae8fe00,0.0,0.0,0.0,0.0,0.0,0.0
2026-05-22 16:35:23.745079,1779482123.745079,-367202,-159525,164409598,37991,36493,-35094,61,eae9fe00,0.0,0.0,0.0,0.0,0.0,0.0
2026-05-22 16:35:23.747910,1779482123.747910,-367202,-159525,164409598,37991,36493,-35094,61,eae9fe00,0.0,0.0,0.0,0.0,0.0,0.0
2026-05-22 16:35:23.750166,1779482123.750166,-289978,-158769,164409695,30829,43260,-30348,61,eae9fe00,0.0,0.0,0.0,0.0,0.0,0.0
2026-05-22 16:35:23.752942,1779482123.752942,-289978,-158769,164409695,30829,43260,-30348,61,eae9fe00,0.0,0.0,0.0,0.0,0.0,0.0
2026-05-22 16:35:23.755195,1779482123.755195,-297804,-170536,164417974,36516,42630,-28674,61,eae9fe00,0.0,0.0,0.0,0.0,0.0,0.0
2026-05-22 16:35:23.757729,1779482123.757729,-297804,-170536,164417974,36516,42630,-28674,61,eae9fe00,0.0,0.0,0.0,0.0,0.0,0.0
2026-05-22 16:35:23.760053,1779482123.760053,-265208,-134289,164399098,27394,49670,-20743,61,eae9fe00,0.0,0.0,0.0,0.0,0.0,0.0
2026-05-22 16:35:23.762898,1779482123.762898,-265208,-134289,164399098,27394,49670,-20743,61,eae9fe00,0.0,0.0,0.0,0.0,0.0,0.0
2026-05-22 16:35:23.765089,1779482123.765089,-282411,-145854,164431957,46294,51198,-22452,61,eae9fe00,0.0,0.0,0.0,0.0,0.0,0.0
2026-05-22 16:35:23.767837,1779482123.767837,-282411,-145854,164431957,46294,51198,-22452,61,eae9fe00,0.0,0.0,0.0,0.0,0.0,0.0
2026-05-22 16:35:23.770093,1779482123.770093,-311378,-124964,164389847,56407,61048,-16130,61,eae9fe00,0.0,0.0,0.0,0.0,0.0,0.0
2026-05-22 16:35:23.772082,1779482123.772082,-311378,-124964,164389847,56407,61048,-16130,61,eae9fe00,0.0,0.0,0.0,0.0,0.0,0.0
2026-05-22 16:35:23.773358,1779482123.773358,-287236,-161306,164403670,67196,49436,-14529,61,eae9fe00,0.0,0.0,0.0,0.0,0.0,0.0
2026-05-22 16:35:23.776319,1779482123.776319,-287236,-161306,164403670,67196,49436,-14529,61,eae9fe00,0.0,0.0,0.0,0.0,0.0,0.0
2026-05-22 16:35:23.777445,1779482123.777445,-299356,-143007,164356710,45475,35899,-27202,61,eae9fe00,0.0,0.0,0.0,0.0,0.0,0.0
2026-05-22 16:35:23.778879,1779482123.778879,-299356,-143007,164356710,45475,35899,-27202,61,eae9fe00,0.0,0.0,0.0,0.0,0.0,0.0
2026-05-22 16:35:23.780013,1779482123.780013,-277400,-149174,164363342,41420,43323,-32068,61,eae9fe00,0.0,0.0,0.0,0.0,0.0,0.0
2026-05-22 16:35:23.781504,1779482123.781504,-277400,-149174,164363342,41420,43323,-32068,61,eae9fe00,0.0,0.0,0.0,0.0,0.0,0.0
2026-05-22 16:35:23.782646,1779482123.782646,-292464,-122589,164382744,38469,31140,-59229,61,eae9fe00,0.0,0.0,0.0,0.0,0.0,0.0
2026-05-22 16:35:23.784058,1779482123.784058,-292464,-122589,164382744,38469,31140,-59229,61,eae9fe00,0.0,0.0,0.0,0.0,0.0,0.0
2026-05-22 16:35:23.785216,1779482123.785216,-331652,-159994,164465980,51960,33269,-60513,61,eae9fe00,0.0,0.0,0.0,0.0,0.0,0.0
2026-05-22 16:35:23.786643,1779482123.786643,-331652,-159994,164465980,51960,33269,-60513,61,eae9fe00,0.0,0.0,0.0,0.0,0.0,0.0
2026-05-22 16:35:23.788383,1779482123.788383,-331652,-159994,164465980,51960,33269,-60513,61,eae9fe00,0.0,0.0,0.0,0.0,0.0,0.0
2026-05-22 16:35:23.789201,1779482123.789201,-328082,-202657,164471889,48217,44914,-68071,61,eae9fe00,0.0,0.0,0.0,0.0,0.0,0.0
2026-05-22 16:35:23.790343,1779482123.790343,-331163,-216327,164443345,33282,61214,-63989,61,eae9fe00,0.0,0.0,0.0,0.0,0.0,0.0
2026-05-22 16:35:23.791855,1779482123.791855,-331163,-216327,164443345,33282,61214,-63989,61,eae9fe00,0.0,0.0,0.0,0.0,0.0,0.0
2026-05-22 16:35:23.793005,1779482123.793005,-302130,-230627,164391102,47017,71880,-46201,61,eae9fe00,0.0,0.0,0.0,0.0,0.0,0.0
2026-05-22 16:35:23.794749,1779482123.794749,-302130,-230627,164391102,47017,71880,-46201,61,eae9fe00,0.0,0.0,0.0,0.0,0.0,0.0
2026-05-22 16:35:23.796058,1779482123.796058,-297880,-226205,164418120,62306,59045,-35342,61,eae9fe00,0.0,0.0,0.0,0.0,0.0,0.0
2026-05-22 16:35:23.797599,1779482123.797599,-297880,-226205,164418120,62306,59045,-35342,61,eae9fe00,0.0,0.0,0.0,0.0,0.0,0.0
2026-05-22 16:35:23.798776,1779482123.798776,-318007,-192899,164403270,76042,43565,-41263,61,eae9fe00,0.0,0.0,0.0,0.0,0.0,0.0
2026-05-22 16:35:23.800156,1779482123.800156,-318007,-192899,164403270,76042,43565,-41263,61,eae9fe00,0.0,0.0,0.0,0.0,0.0,0.0
2026-05-22 16:35:23.801340,1779482123.801340,-307157,-158359,164473863,82904,26160,-32716,61,eae8fe00,0.0,0.0,0.0,0.0,0.0,0.0
2026-05-22 16:35:23.804882,1779482123.804882,-307157,-158359,164473863,82904,26160,-32716,61,eae8fe00,0.0,0.0,0.0,0.0,0.0,0.0
2026-05-22 16:35:23.806200,1779482123.806200,-290663,-116681,164477861,58443,36833,-59504,61,eae9fe00,0.0,0.0,0.0,0.0,0.0,0.0
2026-05-22 16:35:23.807672,1779482123.807672,-290663,-116681,164477861,58443,36833,-59504,61,eae9fe00,0.0,0.0,0.0,0.0,0.0,0.0
2026-05-22 16:35:23.808859,1779482123.808859,-294702,-95799,164519973,54382,21944,-54511,61,eae9fe00,0.0,0.0,0.0,0.0,0.0,0.0
2026-05-22 16:35:23.810479,1779482123.810479,-294702,-95799,164519973,54382,21944,-54511,61,eae9fe00,0.0,0.0,0.0,0.0,0.0,0.0
2026-05-22 16:35:23.811725,1779482123.811725,-264969,-86817,164473528,23151,16661,-59980,61,eae9fe00,0.0,0.0,0.0,0.0,0.0,0.0
2026-05-22 16:35:23.813237,1779482123.813237,-264969,-86817,164473528,23151,16661,-59980,61,eae9fe00,0.0,0.0,0.0,0.0,0.0,0.0
2026-05-22 16:35:23.814450,1779482123.814450,-286327,-86221,164423580,39805,26238,-59161,61,eae9fe00,0.0,0.0,0.0,0.0,0.0,0.0
2026-05-22 16:35:23.815959,1779482123.815959,-286327,-86221,164423580,39805,26238,-59161,61,eae9fe00,0.0,0.0,0.0,0.0,0.0,0.0
2026-05-22 16:35:23.817125,1779482123.817125,-287593,-90486,164365507,38978,40305,-47897,61,eae9fe00,0.0,0.0,0.0,0.0,0.0,0.0
2026-05-22 16:35:23.818753,1779482123.818753,-287593,-90486,164365507,38978,40305,-47897,61,eae9fe00,0.0,0.0,0.0,0.0,0.0,0.0
2026-05-22 16:35:23.821171,1779482123.821171,-305346,-131961,164352507,46877,52567,-53595,61,eae9fe00,0.0,0.0,0.0,0.0,0.0,0.0
2026-05-22 16:35:23.824375,1779482123.824375,-305346,-131961,164352507,46877,52567,-53595,61,eae9fe00,0.0,0.0,0.0,0.0,0.0,0.0
2026-05-22 16:35:23.826864,1779482123.826864,-266365,-166608,164360248,38387,43717,-37661,61,eae9fe00,0.0,0.0,0.0,0.0,0.0,0.0
2026-05-22 16:35:23.829900,1779482123.829900,-266365,-166608,164360248,38387,43717,-37661,61,eae9fe00,0.0,0.0,0.0,0.0,0.0,0.0
2026-05-22 16:35:23.832434,1779482123.832434,-199398,-204178,164429663,25011,44199,-41423,61,eae9fe00,0.0,0.0,0.0,0.0,0.0,0.0
2026-05-22 16:35:23.835566,1779482123.835566,-199398,-204178,164429663,25011,44199,-41423,61,eae9fe00,0.0,0.0,0.0,0.0,0.0,0.0
2026-05-22 16:35:23.838990,1779482123.838990,-199398,-204178,164429663,25011,44199,-41423,61,eae9fe00,0.0,0.0,0.0,0.0,0.0,0.0
2026-05-22 16:35:23.840781,1779482123.840781,-223651,-189410,164417802,43024,61296,-33465,61,eae9fe00,0.0,0.0,0.0,0.0,0.0,0.0
2026-05-22 16:35:23.843300,1779482123.843300,-253114,-148127,164426545,64039,67280,-37504,61,eae9fe00,0.0,0.0,0.0,0.0,0.0,0.0
2026-05-22 16:35:23.850235,1779482123.850235,-253114,-148127,164426545,64039,67280,-37504,61,eae9fe00,0.0,0.0,0.0,0.0,0.0,0.0
2026-05-22 16:35:23.852882,1779482123.852882,-301964,-94024,164403873,84262,64015,-48898,61,eae9fe00,0.0,0.0,0.0,0.0,0.0,0.0
2026-05-22 16:35:23.855964,1779482123.855964,-301964,-94024,164403873,84262,64015,-48898,61,eae9fe00,0.0,0.0,0.0,0.0,0.0,0.0
2026-05-22 16:35:23.858369,1779482123.858369,-287545,-87826,164407062,75045,24408,-35068,61,eae9fe00,0.0,0.0,0.0,0.0,0.0,0.0
2026-05-22 16:35:23.861397,1779482123.861397,-287545,-87826,164407062,75045,24408,-35068,61,eae9fe00,0.0,0.0,0.0,0.0,0.0,0.0
2026-05-22 16:35:23.863793,1779482123.863793,-281298,-106674,164417006,39346,10120,-36043,61,eae9fe00,0.0,0.0,0.0,0.0,0.0,0.0
2026-05-22 16:35:23.866771,1779482123.866771,-281298,-106674,164417006,39346,10120,-36043,61,eae9fe00,0.0,0.0,0.0,0.0,0.0,0.0
2026-05-22 16:35:23.869189,1779482123.869189,-287040,-126160,164407989,53748,1730,-38096,61,eae9fe00,0.0,0.0,0.0,0.0,0.0,0.0
2026-05-22 16:35:23.872293,1779482123.872293,-287040,-126160,164407989,53748,1730,-38096,61,eae9fe00,0.0,0.0,0.0,0.0,0.0,0.0
2026-05-22 16:35:23.874738,1779482123.874738,-259183,-156427,164413792,31175,-14194,-51865,61,eae8fe00,0.0,0.0,0.0,0.0,0.0,0.0
2026-05-22 16:35:23.877821,1779482123.877821,-259183,-156427,164413792,31175,-14194,-51865,61,eae8fe00,0.0,0.0,0.0,0.0,0.0,0.0
2026-05-22 16:35:23.880291,1779482123.880291,-300056,-171665,164390450,36751,-10665,-45448,61,eae9fe00,0.0,0.0,0.0,0.0,0.0,0.0
2026-05-22 16:35:23.883321,1779482123.883321,-300056,-171665,164390450,36751,-10665,-45448,61,eae9fe00,0.0,0.0,0.0,0.0,0.0,0.0
2026-05-22 16:35:23.885766,1779482123.885766,-291107,-182459,164383624,50999,3543,-40702,61,eae9fe00,0.0,0.0,0.0,0.0,0.0,0.0
2026-05-22 16:35:23.888811,1779482123.888811,-291107,-182459,164383624,50999,3543,-40702,61,eae9fe00,0.0,0.0,0.0,0.0,0.0,0.0
2026-05-22 16:35:23.891290,1779482123.891290,-323705,-162990,164394094,44989,24180,-42544,61,eae9fe00,0.0,0.0,0.0,0.0,0.0,0.0
2026-05-22 16:35:23.894302,1779482123.894302,-323705,-162990,164394094,44989,24180,-42544,61,eae9fe00,0.0,0.0,0.0,0.0,0.0,0.0
2026-05-22 16:35:23.896694,1779482123.896694,-296710,-100760,164414093,67402,24143,-42255,61,eae8fe00,0.0,0.0,0.0,0.0,0.0,0.0
2026-05-22 16:35:23.899856,1779482123.899856,-296710,-100760,164414093,67402,24143,-42255,61,eae8fe00,0.0,0.0,0.0,0.0,0.0,0.0
2026-05-22 16:35:23.902332,1779482123.902332,-350044,-58914,164427468,48129,31036,-47315,61,eae9fe00,0.0,0.0,0.0,0.0,0.0,0.0
2026-05-22 16:35:23.909003,1779482123.909003,-350044,-58914,164427468,48129,31036,-47315,61,eae9fe00,0.0,0.0,0.0,0.0,0.0,0.0
2026-05-22 16:35:23.911580,1779482123.911580,-336401,-66683,164404354,55482,34865,-34234,61,eae9fe00,0.0,0.0,0.0,0.0,0.0,0.0
2026-05-22 16:35:23.914701,1779482123.914701,-336401,-66683,164404354,55482,34865,-34234,61,eae9fe00,0.0,0.0,0.0,0.0,0.0,0.0
2026-05-22 16:35:23.916920,1779482123.916920,-355308,-60407,164432749,29515,61227,-32017,61,eae9fe00,0.0,0.0,0.0,0.0,0.0,0.0
2026-05-22 16:35:23.918611,1779482123.918611,-355308,-60407,164432749,29515,61227,-32017,61,eae9fe00,0.0,0.0,0.0,0.0,0.0,0.0
2026-05-22 16:35:23.919853,1779482123.919853,-350546,-94588,164459693,16791,35128,-28904,61,eae8fe00,0.0,0.0,0.0,0.0,0.0,0.0
2026-05-22 16:35:23.921516,1779482123.921516,-350546,-94588,164459693,16791,35128,-28904,61,eae8fe00,0.0,0.0,0.0,0.0,0.0,0.0
2026-05-22 16:35:23.923023,1779482123.923023,-348397,-123083,164435598,-2617,34224,-35766,61,eae8fe00,0.0,0.0,0.0,0.0,0.0,0.0
2026-05-22 16:35:23.924599,1779482123.924599,-348397,-123083,164435598,-2617,34224,-35766,61,eae8fe00,0.0,0.0,0.0,0.0,0.0,0.0
2026-05-22 16:35:23.925807,1779482123.925807,-355972,-148208,164387783,35985,22700,-29302,61,eae8fe00,0.0,0.0,0.0,0.0,0.0,0.0
2026-05-22 16:35:23.927348,1779482123.927348,-355972,-148208,164387783,35985,22700,-29302,61,eae8fe00,0.0,0.0,0.0,0.0,0.0,0.0
2026-05-22 16:35:23.928606,1779482123.928606,-370385,-167372,164362292,62358,33803,-33215,61,eae9fe00,0.0,0.0,0.0,0.0,0.0,0.0
2026-05-22 16:35:23.930224,1779482123.930224,-370385,-167372,164362292,62358,33803,-33215,61,eae9fe00,0.0,0.0,0.0,0.0,0.0,0.0
2026-05-22 16:35:23.931545,1779482123.931545,-358303,-156672,164342477,93936,55149,-21625,61,eae9fe00,0.0,0.0,0.0,0.0,0.0,0.0
2026-05-22 16:35:23.933082,1779482123.933082,-358303,-156672,164342477,93936,55149,-21625,61,eae9fe00,0.0,0.0,0.0,0.0,0.0,0.0
2026-05-22 16:35:23.934338,1779482123.934338,-339355,-146241,164337891,84476,31655,-13261,61,eae9fe00,0.0,0.0,0.0,0.0,0.0,0.0
2026-05-22 16:35:23.936060,1779482123.936060,-339355,-146241,164337891,84476,31655,-13261,61,eae9fe00,0.0,0.0,0.0,0.0,0.0,0.0
2026-05-22 16:35:23.937537,1779482123.937537,-330729,-148067,164346854,57440,43624,-19881,61,eae9fe00,0.0,0.0,0.0,0.0,0.0,0.0
2026-05-22 16:35:23.939132,1779482123.939132,-330729,-148067,164346854,57440,43624,-19881,61,eae9fe00,0.0,0.0,0.0,0.0,0.0,0.0
2026-05-22 16:35:23.940444,1779482123.940444,-313805,-139633,164343276,60382,40153,15636,61,eae9fe00,0.0,0.0,0.0,0.0,0.0,0.0
2026-05-22 16:35:23.946710,1779482123.946710,-313805,-139633,164343276,60382,40153,15636,61,eae9fe00,0.0,0.0,0.0,0.0,0.0,0.0
2026-05-22 16:35:23.952899,1779482123.952899,-337849,-146475,164340886,46975,60450,6133,61,eae9fe00,0.0,0.0,0.0,0.0,0.0,0.0
2026-05-22 16:35:23.955431,1779482123.955431,-337849,-146475,164340886,46975,60450,6133,61,eae9fe00,0.0,0.0,0.0,0.0,0.0,0.0
2026-05-22 16:35:23.957151,1779482123.957151,-339925,-91360,164354517,55946,58926,617,61,eae9fe00,0.0,0.0,0.0,0.0,0.0,0.0
2026-05-22 16:35:23.959183,1779482123.959183,-339925,-91360,164354517,55946,58926,617,61,eae9fe00,0.0,0.0,0.0,0.0,0.0,0.0
2026-05-22 16:35:23.960651,1779482123.960651,-330075,-100347,164393496,27868,67726,-5187,61,eae9fe00,0.0,0.0,0.0,0.0,0.0,0.0
2026-05-22 16:35:23.962460,1779482123.962460,-330075,-100347,164393496,27868,67726,-5187,61,eae9fe00,0.0,0.0,0.0,0.0,0.0,0.0
2026-05-22 16:35:23.963855,1779482123.963855,-283258,-92395,164407282,33803,44466,-18777,61,eae9fe00,0.0,0.0,0.0,0.0,0.0,0.0
2026-05-22 16:35:23.965640,1779482123.965640,-283258,-92395,164407282,33803,44466,-18777,61,eae9fe00,0.0,0.0,0.0,0.0,0.0,0.0
2026-05-22 16:35:23.967194,1779482123.967194,-274435,-146625,164418147,30127,54409,-25522,61,eae9fe00,0.0,0.0,0.0,0.0,0.0,0.0
2026-05-22 16:35:23.970002,1779482123.970002,-274435,-146625,164418147,30127,54409,-25522,61,eae9fe00,0.0,0.0,0.0,0.0,0.0,0.0
2026-05-22 16:35:23.971842,1779482123.971842,-284173,-151135,164374135,51026,55205,-59756,61,eae9fe00,0.0,0.0,0.0,0.0,0.0,0.0
2026-05-22 16:35:23.973599,1779482123.973599,-284173,-151135,164374135,51026,55205,-59756,61,eae9fe00,0.0,0.0,0.0,0.0,0.0,0.0
2026-05-22 16:35:23.974989,1779482123.974989,-301916,-129123,164406059,50080,70882,-57669,61,eae9fe00,0.0,0.0,0.0,0.0,0.0,0.0
2026-05-22 16:35:23.976795,1779482123.976795,-301916,-129123,164406059,50080,70882,-57669,61,eae9fe00,0.0,0.0,0.0,0.0,0.0,0.0
2026-05-22 16:35:23.978351,1779482123.978351,-318940,-112495,164407932,61498,61606,-35178,61,eae9fe00,0.0,0.0,0.0,0.0,0.0,0.0
2026-05-22 16:35:23.980263,1779482123.980263,-318940,-112495,164407932,61498,61606,-35178,61,eae9fe00,0.0,0.0,0.0,0.0,0.0,0.0
2026-05-22 16:35:23.981829,1779482123.981829,-319167,-138676,164427409,68869,65434,-20990,61,eae9fe00,0.0,0.0,0.0,0.0,0.0,0.0
2026-05-22 16:35:23.983663,1779482123.983663,-319167,-138676,164427409,68869,65434,-20990,61,eae9fe00,0.0,0.0,0.0,0.0,0.0,0.0
2026-05-22 16:35:23.985116,1779482123.985116,-334565,-139456,164396950,74971,53105,-35647,61,eae9fe00,0.0,0.0,0.0,0.0,0.0,0.0
2026-05-22 16:35:23.989004,1779482123.989004,-334565,-139456,164396950,74971,53105,-35647,61,eae9fe00,0.0,0.0,0.0,0.0,0.0,0.0
2026-05-22 16:35:23.990449,1779482123.990449,-354711,-132305,164396568,64650,57026,-58643,61,eae9fe00,0.0,0.0,0.0,0.0,0.0,0.0
2026-05-22 16:35:23.992323,1779482123.992323,-354711,-132305,164396568,64650,57026,-58643,61,eae9fe00,0.0,0.0,0.0,0.0,0.0,0.0
2026-05-22 16:35:23.993827,1779482123.993827,-359656,-158581,164401550,66824,47005,-67760,61,eae9fe00,0.0,0.0,0.0,0.0,0.0,0.0
2026-05-22 16:35:23.995655,1779482123.995655,-359656,-158581,164401550,66824,47005,-67760,61,eae9fe00,0.0,0.0,0.0,0.0,0.0,0.0
2026-05-22 16:35:23.997284,1779482123.997284,-325283,-155407,164380100,29748,33632,-47017,61,eae9fe00,0.0,0.0,0.0,0.0,0.0,0.0
2026-05-22 16:35:23.999180,1779482123.999180,-325283,-155407,164380100,29748,33632,-47017,61,eae9fe00,0.0,0.0,0.0,0.0,0.0,0.0
2026-05-22 16:35:24.000638,1779482124.000638,-285235,-168713,164379615,44205,34081,-27035,61,eae9fe00,0.0,0.0,0.0,0.0,0.0,0.0
2026-05-22 16:35:24.002525,1779482124.002525,-285235,-168713,164379615,44205,34081,-27035,61,eae9fe00,0.0,0.0,0.0,0.0,0.0,0.0
2026-05-22 16:35:24.003973,1779482124.003973,-282254,-175146,164344045,35121,18041,-43206,61,eae9fe00,0.0,0.0,0.0,0.0,0.0,0.0
2026-05-22 16:35:24.005934,1779482124.005934,-282254,-175146,164344045,35121,18041,-43206,61,eae9fe00,0.0,0.0,0.0,0.0,0.0,0.0
2026-05-22 16:35:24.007675,1779482124.007675,-298838,-214310,164380103,70080,28931,-52181,61,eae9fe00,0.0,0.0,0.0,0.0,0.0,0.0
2026-05-22 16:35:24.009678,1779482124.009678,-298838,-214310,164380103,70080,28931,-52181,61,eae9fe00,0.0,0.0,0.0,0.0,0.0,0.0
2026-05-22 16:35:24.011128,1779482124.011128,-268872,-225516,164384179,70652,30454,-61030,61,eae9fe00,0.0,0.0,0.0,0.0,0.0,0.0
2026-05-22 16:35:24.012871,1779482124.012871,-268872,-225516,164384179,70652,30454,-61030,61,eae9fe00,0.0,0.0,0.0,0.0,0.0,0.0
2026-05-22 16:35:24.014283,1779482124.014283,-263926,-230916,164404418,64096,18062,-52055,61,eae9fe00,0.0,0.0,0.0,0.0,0.0,0.0
2026-05-22 16:35:24.016049,1779482124.016049,-263926,-230916,164404418,64096,18062,-52055,61,eae9fe00,0.0,0.0,0.0,0.0,0.0,0.0
2026-05-22 16:35:24.017647,1779482124.017647,-281950,-174125,164417384,80091,16063,-45142,61,eae9fe00,0.0,0.0,0.0,0.0,0.0,0.0
2026-05-22 16:35:24.019391,1779482124.019391,-281950,-174125,164417384,80091,16063,-45142,61,eae9fe00,0.0,0.0,0.0,0.0,0.0,0.0
2026-05-22 16:35:24.020783,1779482124.020783,-323933,-153316,164420396,76760,2599,-37609,61,eae9fe00,0.0,0.0,0.0,0.0,0.0,0.0
2026-05-22 16:35:24.024440,1779482124.024440,-323933,-153316,164420396,76760,2599,-37609,61,eae9fe00,0.0,0.0,0.0,0.0,0.0,0.0
2026-05-22 16:35:24.025755,1779482124.025755,-366902,-106608,164407943,72182,495,-53197,61,eae8fe00,0.0,0.0,0.0,0.0,0.0,0.0
2026-05-22 16:35:24.027498,1779482124.027498,-366902,-106608,164407943,72182,495,-53197,61,eae8fe00,0.0,0.0,0.0,0.0,0.0,0.0
2026-05-22 16:35:24.029354,1779482124.029354,-344907,-129288,164397523,51238,7500,-47444,61,eae9fe00,0.0,0.0,0.0,0.0,0.0,0.0
2026-05-22 16:35:24.031250,1779482124.031250,-344907,-129288,164397523,51238,7500,-47444,61,eae9fe00,0.0,0.0,0.0,0.0,0.0,0.0
2026-05-22 16:35:24.032791,1779482124.032791,-315567,-127760,164402879,63451,29197,-48240,61,eae9fe00,0.0,0.0,0.0,0.0,0.0,0.0
2026-05-22 16:35:24.034647,1779482124.034647,-315567,-127760,164402879,63451,29197,-48240,61,eae9fe00,0.0,0.0,0.0,0.0,0.0,0.0
2026-05-22 16:35:24.036101,1779482124.036101,-261282,-114311,164393860,72711,30072,-31772,61,eae9fe00,0.0,0.0,0.0,0.0,0.0,0.0
2026-05-22 16:35:24.037795,1779482124.037795,-261282,-114311,164393860,72711,30072,-31772,61,eae9fe00,0.0,0.0,0.0,0.0,0.0,0.0
2026-05-22 16:35:24.039152,1779482124.039152,-246108,-114174,164397785,96535,38965,-29541,61,eae9fe00,0.0,0.0,0.0,0.0,0.0,0.0
2026-05-22 16:35:24.041882,1779482124.041882,-246108,-114174,164397785,96535,38965,-29541,61,eae9fe00,0.0,0.0,0.0,0.0,0.0,0.0
2026-05-22 16:35:24.043577,1779482124.043577,-251012,-139614,164372733,91204,16310,-37366,61,eae9fe00,0.0,0.0,0.0,0.0,0.0,0.0
2026-05-22 16:35:24.045508,1779482124.045508,-251012,-139614,164372733,91204,16310,-37366,61,eae9fe00,0.0,0.0,0.0,0.0,0.0,0.0
2026-05-22 16:35:24.047046,1779482124.047046,-246004,-176559,164400921,70784,22762,-51919,61,eae9fe00,0.0,0.0,0.0,0.0,0.0,0.0
2026-05-22 16:35:24.048848,1779482124.048848,-246004,-176559,164400921,70784,22762,-51919,61,eae9fe00,0.0,0.0,0.0,0.0,0.0,0.0
2026-05-22 16:35:24.050220,1779482124.050220,-239139,-178121,164411144,69355,22432,-57763,61,eae9fe00,0.0,0.0,0.0,0.0,0.0,0.0
2026-05-22 16:35:24.052343,1779482124.052343,-239139,-178121,164411144,69355,22432,-57763,61,eae9fe00,0.0,0.0,0.0,0.0,0.0,0.0
2026-05-22 16:35:24.054724,1779482124.054724,-248780,-185624,164402421,75274,56198,-55577,61,eae9fe00,0.0,0.0,0.0,0.0,0.0,0.0
2026-05-22 16:35:24.056820,1779482124.056820,-248780,-185624,164402421,75274,56198,-55577,61,eae9fe00,0.0,0.0,0.0,0.0,0.0,0.0
2026-05-22 16:35:24.059783,1779482124.059783,-286984,-164718,164373124,50327,48072,-51889,61,eae9fe00,0.0,0.0,0.0,0.0,0.0,0.0
2026-05-22 16:35:24.067808,1779482124.067808,-286984,-164718,164373124,50327,48072,-51889,61,eae9fe00,0.0,0.0,0.0,0.0,0.0,0.0
2026-05-22 16:35:24.070914,1779482124.070914,-333442,-160620,164369621,25338,44284,-48087,61,eae9fe00,0.0,0.0,0.0,0.0,0.0,0.0
2026-05-22 16:35:24.074421,1779482124.074421,-333442,-160620,164369621,25338,44284,-48087,61,eae9fe00,0.0,0.0,0.0,0.0,0.0,0.0
2026-05-22 16:35:24.077234,1779482124.077234,-343974,-150788,164368443,20904,38576,-27906,61,eae9fe00,0.0,0.0,0.0,0.0,0.0,0.0
2026-05-22 16:35:24.080863,1779482124.080863,-343974,-150788,164368443,20904,38576,-27906,61,eae9fe00,0.0,0.0,0.0,0.0,0.0,0.0
2026-05-22 16:35:24.083094,1779482124.083094,-327340,-136305,164354616,44043,48740,-15972,61,eae9fe00,0.0,0.0,0.0,0.0,0.0,0.0
2026-05-22 16:35:24.084956,1779482124.084956,-327340,-136305,164354616,44043,48740,-15972,61,eae9fe00,0.0,0.0,0.0,0.0,0.0,0.0
2026-05-22 16:35:24.087141,1779482124.087141,-312199,-175259,164351961,48700,49524,-19193,61,eae9fe00,0.0,0.0,0.0,0.0,0.0,0.0
2026-05-22 16:35:24.089043,1779482124.089043,-312199,-175259,164351961,48700,49524,-19193,61,eae9fe00,0.0,0.0,0.0,0.0,0.0,0.0
2026-05-22 16:35:24.090834,1779482124.090834,-320286,-203879,164369972,44639,29528,-35397,61,eae9fe00,0.0,0.0,0.0,0.0,0.0,0.0
2026-05-22 16:35:24.093015,1779482124.093015,-320286,-203879,164369972,44639,29528,-35397,61,eae9fe00,0.0,0.0,0.0,0.0,0.0,0.0
2026-05-22 16:35:24.094544,1779482124.094544,-298705,-215772,164425655,31202,33485,-43769,61,eae9fe00,0.0,0.0,0.0,0.0,0.0,0.0
2026-05-22 16:35:24.096281,1779482124.096281,-298705,-215772,164425655,31202,33485,-43769,61,eae9fe00,0.0,0.0,0.0,0.0,0.0,0.0
2026-05-22 16:35:24.097808,1779482124.097808,-287967,-230980,164456607,22955,50190,-42861,61,eae9fe00,0.0,0.0,0.0,0.0,0.0,0.0
2026-05-22 16:35:24.101474,1779482124.101474,-287967,-230980,164456607,22955,50190,-42861,61,eae9fe00,0.0,0.0,0.0,0.0,0.0,0.0
2026-05-22 16:35:24.103177,1779482124.103177,-255004,-152305,164418786,28150,35628,-45575,61,eae9fe00,0.0,0.0,0.0,0.0,0.0,0.0
2026-05-22 16:35:24.105130,1779482124.105130,-255004,-152305,164418786,28150,35628,-45575,61,eae9fe00,0.0,0.0,0.0,0.0,0.0,0.0
2026-05-22 16:35:24.106687,1779482124.106687,-241934,-112221,164418792,31166,62934,-20619,61,eae9fe00,0.0,0.0,0.0,0.0,0.0,0.0
2026-05-22 16:35:24.108660,1779482124.108660,-241934,-112221,164418792,31166,62934,-20619,61,eae9fe00,0.0,0.0,0.0,0.0,0.0,0.0
2026-05-22 16:35:24.110270,1779482124.110270,-223633,-101737,164393435,49352,57487,-22980,61,eae9fe00,0.0,0.0,0.0,0.0,0.0,0.0
2026-05-22 16:35:24.115373,1779482124.115373,-223633,-101737,164393435,49352,57487,-22980,61,eae9fe00,0.0,0.0,0.0,0.0,0.0,0.0
2026-05-22 16:35:24.118138,1779482124.118138,-249563,-113668,164410069,47094,54980,-28005,61,eae9fe00,0.0,0.0,0.0,0.0,0.0,0.0
2026-05-22 16:35:24.121458,1779482124.121458,-249563,-113668,164410069,47094,54980,-28005,61,eae9fe00,0.0,0.0,0.0,0.0,0.0,0.0
2026-05-22 16:35:24.123656,1779482124.123656,-273572,-114745,164407690,46870,24595,-39318,61,eae9fe00,0.0,0.0,0.0,0.0,0.0,0.0
2026-05-22 16:35:24.126761,1779482124.126761,-273572,-114745,164407690,46870,24595,-39318,61,eae9fe00,0.0,0.0,0.0,0.0,0.0,0.0
2026-05-22 16:35:24.129285,1779482124.129285,-326172,-117990,164427983,37814,31321,-19719,61,eae9fe00,0.0,0.0,0.0,0.0,0.0,0.0
2026-05-22 16:35:24.131554,1779482124.131554,-326172,-117990,164427983,37814,31321,-19719,61,eae9fe00,0.0,0.0,0.0,0.0,0.0,0.0
2026-05-22 16:35:24.133092,1779482124.133092,-302514,-116246,164445885,48635,45412,-14315,61,eae9fe00,0.0,0.0,0.0,0.0,0.0,0.0
2026-05-22 16:35:24.134774,1779482124.134774,-302514,-116246,164445885,48635,45412,-14315,61,eae9fe00,0.0,0.0,0.0,0.0,0.0,0.0
2026-05-22 16:35:24.136141,1779482124.136141,-306536,-118611,164420371,50097,54079,-26159,61,eae9fe00,0.0,0.0,0.0,0.0,0.0,0.0
2026-05-22 16:35:24.137848,1779482124.137848,-306536,-118611,164420371,50097,54079,-26159,61,eae9fe00,0.0,0.0,0.0,0.0,0.0,0.0
2026-05-22 16:35:24.139268,1779482124.139268,-310973,-115767,164396620,57300,53579,-39045,61,eae9fe00,0.0,0.0,0.0,0.0,0.0,0.0
2026-05-22 16:35:24.140898,1779482124.140898,-310973,-115767,164396620,57300,53579,-39045,61,eae9fe00,0.0,0.0,0.0,0.0,0.0,0.0
2026-05-22 16:35:24.142334,1779482124.142334,-305217,-134376,164406568,50600,50282,-51131,61,eae9fe00,0.0,0.0,0.0,0.0,0.0,0.0
2026-05-22 16:35:24.144004,1779482124.144004,-305217,-134376,164406568,50600,50282,-51131,61,eae9fe00,0.0,0.0,0.0,0.0,0.0,0.0
2026-05-22 16:35:24.145287,1779482124.145287,-309881,-150274,164430341,57140,38985,-61574,61,eae9fe00,0.0,0.0,0.0,0.0,0.0,0.0
2026-05-22 16:35:24.146831,1779482124.146831,-309881,-150274,164430341,57140,38985,-61574,61,eae9fe00,0.0,0.0,0.0,0.0,0.0,0.0
2026-05-22 16:35:24.148047,1779482124.148047,-289624,-141127,164433506,75103,44807,-63902,61,eae9fe00,0.0,0.0,0.0,0.0,0.0,0.0
2026-05-22 16:35:24.149588,1779482124.149588,-289624,-141127,164433506,75103,44807,-63902,61,eae9fe00,0.0,0.0,0.0,0.0,0.0,0.0
2026-05-22 16:35:24.150822,1779482124.150822,-282777,-107459,164418264,82088,19725,-49395,61,eae9fe00,0.0,0.0,0.0,0.0,0.0,0.0
2026-05-22 16:35:24.154182,1779482124.154182,-282777,-107459,164418264,82088,19725,-49395,61,eae9fe00,0.0,0.0,0.0,0.0,0.0,0.0
2026-05-22 16:35:24.156321,1779482124.156321,-224890,-144690,164372084,74592,46101,-46040,61,eae8fe00,0.0,0.0,0.0,0.0,0.0,0.0
2026-05-22 16:35:24.158391,1779482124.158391,-224890,-144690,164372084,74592,46101,-46040,61,eae8fe00,0.0,0.0,0.0,0.0,0.0,0.0
2026-05-22 16:35:24.159853,1779482124.159853,-258117,-185307,164342648,60023,33100,-26135,61,eae9fe00,0.0,0.0,0.0,0.0,0.0,0.0
2026-05-22 16:35:24.161627,1779482124.161627,-258117,-185307,164342648,60023,33100,-26135,61,eae9fe00,0.0,0.0,0.0,0.0,0.0,0.0
2026-05-22 16:35:24.162969,1779482124.162969,-275242,-213033,164331422,62055,50713,-27953,61,eae9fe00,0.0,0.0,0.0,0.0,0.0,0.0
2026-05-22 16:35:24.164622,1779482124.164622,-275242,-213033,164331422,62055,50713,-27953,61,eae9fe00,0.0,0.0,0.0,0.0,0.0,0.0
2026-05-22 16:35:24.165945,1779482124.165945,-317451,-182823,164358233,53797,35589,-4191,61,eae9fe00,0.0,0.0,0.0,0.0,0.0,0.0
2026-05-22 16:35:24.167797,1779482124.167797,-317451,-182823,164358233,53797,35589,-4191,61,eae9fe00,0.0,0.0,0.0,0.0,0.0,0.0
2026-05-22 16:35:24.169202,1779482124.169202,-355002,-159219,164407033,48881,35121,-13667,61,eae9fe00,0.0,0.0,0.0,0.0,0.0,0.0
2026-05-22 16:35:24.170857,1779482124.170857,-355002,-159219,164407033,48881,35121,-13667,61,eae9fe00,0.0,0.0,0.0,0.0,0.0,0.0
2026-05-22 16:35:24.172113,1779482124.172113,-399305,-145775,164381759,52804,51533,-4831,61,eae9fe00,0.0,0.0,0.0,0.0,0.0,0.0
2026-05-22 16:35:24.173744,1779482124.173744,-399305,-145775,164381759,52804,51533,-4831,61,eae9fe00,0.0,0.0,0.0,0.0,0.0,0.0
2026-05-22 16:35:24.175084,1779482124.175084,-385674,-156808,164359890,64748,59983,-19624,61,eae9fe00,0.0,0.0,0.0,0.0,0.0,0.0
2026-05-22 16:35:24.177295,1779482124.177295,-385674,-156808,164359890,64748,59983,-19624,61,eae9fe00,0.0,0.0,0.0,0.0,0.0,0.0
2026-05-22 16:35:24.178746,1779482124.178746,-341751,-186775,164322559,75571,60037,-10670,61,eae9fe00,0.0,0.0,0.0,0.0,0.0,0.0
2026-05-22 16:35:24.180435,1779482124.180435,-341751,-186775,164322559,75571,60037,-10670,61,eae9fe00,0.0,0.0,0.0,0.0,0.0,0.0
2026-05-22 16:35:24.181778,1779482124.181778,-325925,-228072,164345927,49494,50484,-38354,61,eae9fe00,0.0,0.0,0.0,0.0,0.0,0.0
2026-05-22 16:35:24.183507,1779482124.183507,-325925,-228072,164345927,49494,50484,-38354,61,eae9fe00,0.0,0.0,0.0,0.0,0.0,0.0
2026-05-22 16:35:24.185657,1779482124.185657,-299905,-203453,164366862,46855,56482,-46835,61,eae9fe00,0.0,0.0,0.0,0.0,0.0,0.0
2026-05-22 16:35:24.189188,1779482124.189188,-299905,-203453,164366862,46855,56482,-46835,61,eae9fe00,0.0,0.0,0.0,0.0,0.0,0.0
2026-05-22 16:35:24.190497,1779482124.190497,-270060,-184945,164391521,43700,66545,-67125,61,eae9fe00,0.0,0.0,0.0,0.0,0.0,0.0
2026-05-22 16:35:24.192107,1779482124.192107,-270060,-184945,164391521,43700,66545,-67125,61,eae9fe00,0.0,0.0,0.0,0.0,0.0,0.0
2026-05-22 16:35:24.193369,1779482124.193369,-294759,-142808,164424269,44420,72034,-66200,61,eae9fe00,0.0,0.0,0.0,0.0,0.0,0.0
2026-05-22 16:35:24.194863,1779482124.194863,-294759,-142808,164424269,44420,72034,-66200,61,eae9fe00,0.0,0.0,0.0,0.0,0.0,0.0
2026-05-22 16:35:24.196039,1779482124.196039,-270753,-141204,164429652,62547,59671,-73416,61,eae9fe00,0.0,0.0,0.0,0.0,0.0,0.0
2026-05-22 16:35:24.197487,1779482124.197487,-270753,-141204,164429652,62547,59671,-73416,61,eae9fe00,0.0,0.0,0.0,0.0,0.0,0.0
2026-05-22 16:35:24.198719,1779482124.198719,-305276,-167623,164461571,24571,49295,-57586,61,eae9fe00,0.0,0.0,0.0,0.0,0.0,0.0
2026-05-22 16:35:24.200433,1779482124.200433,-305276,-167623,164461571,24571,49295,-57586,61,eae9fe00,0.0,0.0,0.0,0.0,0.0,0.0
2026-05-22 16:35:24.201655,1779482124.201655,-303497,-156348,164450821,39423,32326,-36554,61,eae9fe00,0.0,0.0,0.0,0.0,0.0,0.0
2026-05-22 16:35:24.203143,1779482124.203143,-303497,-156348,164450821,39423,32326,-36554,61,eae9fe00,0.0,0.0,0.0,0.0,0.0,0.0
2026-05-22 16:35:24.204340,1779482124.204340,-286142,-172304,164450451,20982,14966,-17313,61,eae9fe00,0.0,0.0,0.0,0.0,0.0,0.0
2026-05-22 16:35:24.205746,1779482124.205746,-286142,-172304,164450451,20982,14966,-17313,61,eae9fe00,0.0,0.0,0.0,0.0,0.0,0.0
2026-05-22 16:35:24.206951,1779482124.206951,-349274,-135831,164441340,29398,17515,-35087,61,eae9fe00,0.0,0.0,0.0,0.0,0.0,0.0
2026-05-22 16:35:24.208498,1779482124.208498,-349274,-135831,164441340,29398,17515,-35087,61,eae9fe00,0.0,0.0,0.0,0.0,0.0,0.0
2026-05-22 16:35:24.209644,1779482124.209644,-353757,-111187,164430396,26192,32819,-52598,61,eae9fe00,0.0,0.0,0.0,0.0,0.0,0.0
2026-05-22 16:35:24.211085,1779482124.211085,-353757,-111187,164430396,26192,32819,-52598,61,eae9fe00,0.0,0.0,0.0,0.0,0.0,0.0
2026-05-22 16:35:24.212298,1779482124.212298,-368067,-131515,164451709,42018,29661,-46845,61,eae9fe00,0.0,0.0,0.0,0.0,0.0,0.0
2026-05-22 16:35:24.213780,1779482124.213780,-368067,-131515,164451709,42018,29661,-46845,61,eae9fe00,0.0,0.0,0.0,0.0,0.0,0.0
2026-05-22 16:35:24.214980,1779482124.214980,-354015,-115083,164401854,48563,35818,-62570,61,eae9fe00,0.0,0.0,0.0,0.0,0.0,0.0
2026-05-22 16:35:24.218092,1779482124.218092,-354015,-115083,164401854,48563,35818,-62570,61,eae9fe00,0.0,0.0,0.0,0.0,0.0,0.0
2026-05-22 16:35:24.219251,1779482124.219251,-313107,-153554,164378039,67151,21916,-57555,61,eae9fe00,0.0,0.0,0.0,0.0,0.0,0.0
2026-05-22 16:35:24.220660,1779482124.220660,-313107,-153554,164378039,67151,21916,-57555,61,eae9fe00,0.0,0.0,0.0,0.0,0.0,0.0
2026-05-22 16:35:24.221992,1779482124.221992,-313295,-150562,164384552,70868,23365,-58803,61,eae9fe00,0.0,0.0,0.0,0.0,0.0,0.0
2026-05-22 16:35:24.223427,1779482124.223427,-313295,-150562,164384552,70868,23365,-58803,61,eae9fe00,0.0,0.0,0.0,0.0,0.0,0.0
2026-05-22 16:35:24.224555,1779482124.224555,-302251,-156354,164387237,62073,19933,-37722,61,eae9fe00,0.0,0.0,0.0,0.0,0.0,0.0
2026-05-22 16:35:24.227420,1779482124.227420,-302251,-156354,164387237,62073,19933,-37722,61,eae9fe00,0.0,0.0,0.0,0.0,0.0,0.0
2026-05-22 16:35:24.228603,1779482124.228603,-300841,-116442,164438366,59798,31334,-25794,61,eae9fe00,0.0,0.0,0.0,0.0,0.0,0.0
2026-05-22 16:35:24.230001,1779482124.230001,-300841,-116442,164438366,59798,31334,-25794,61,eae9fe00,0.0,0.0,0.0,0.0,0.0,0.0
2026-05-22 16:35:24.231119,1779482124.231119,-259876,-115498,164446664,55533,56733,-29651,61,eae9fe00,0.0,0.0,0.0,0.0,0.0,0.0
2026-05-22 16:35:24.232682,1779482124.232682,-259876,-115498,164446664,55533,56733,-29651,61,eae9fe00,0.0,0.0,0.0,0.0,0.0,0.0
2026-05-22 16:35:24.233876,1779482124.233876,-264108,-112220,164452699,56492,75719,-28842,61,eae9fe00,0.0,0.0,0.0,0.0,0.0,0.0
2026-05-22 16:35:24.235382,1779482124.235382,-264108,-112220,164452699,56492,75719,-28842,61,eae9fe00,0.0,0.0,0.0,0.0,0.0,0.0
2026-05-22 16:35:24.236600,1779482124.236600,-286803,-135753,164405967,41206,75886,-19005,61,eae9fe00,0.0,0.0,0.0,0.0,0.0,0.0
2026-05-22 16:35:24.238048,1779482124.238048,-286803,-135753,164405967,41206,75886,-19005,61,eae9fe00,0.0,0.0,0.0,0.0,0.0,0.0
2026-05-22 16:35:24.239237,1779482124.239237,-320170,-158262,164386326,30695,65906,-24084,61,eae9fe00,0.0,0.0,0.0,0.0,0.0,0.0
2026-05-22 16:35:24.240652,1779482124.240652,-320170,-158262,164386326,30695,65906,-24084,61,eae9fe00,0.0,0.0,0.0,0.0,0.0,0.0
2026-05-22 16:35:24.241782,1779482124.241782,-295563,-153206,164337147,38878,57306,-46124,61,eae9fe00,0.0,0.0,0.0,0.0,0.0,0.0
2026-05-22 16:35:24.243207,1779482124.243207,-295563,-153206,164337147,38878,57306,-46124,61,eae9fe00,0.0,0.0,0.0,0.0,0.0,0.0
2026-05-22 16:35:24.244350,1779482124.244350,-283305,-162433,164357591,46720,32719,-53086,61,eae9fe00,0.0,0.0,0.0,0.0,0.0,0.0
2026-05-22 16:35:24.247487,1779482124.247487,-283305,-162433,164357591,46720,32719,-53086,61,eae9fe00,0.0,0.0,0.0,0.0,0.0,0.0
2026-05-22 16:35:24.249891,1779482124.249891,-284892,-159998,164377378,33785,25057,-55442,61,eae9fe00,0.0,0.0,0.0,0.0,0.0,0.0
2026-05-22 16:35:24.252823,1779482124.252823,-284892,-159998,164377378,33785,25057,-55442,61,eae9fe00,0.0,0.0,0.0,0.0,0.0,0.0
2026-05-22 16:35:24.255128,1779482124.255128,-290673,-201101,164377832,50978,24135,-45324,61,eae9fe00,0.0,0.0,0.0,0.0,0.0,0.0
2026-05-22 16:35:24.258000,1779482124.258000,-290673,-201101,164377832,50978,24135,-45324,61,eae9fe00,0.0,0.0,0.0,0.0,0.0,0.0
2026-05-22 16:35:24.260336,1779482124.260336,-316965,-231190,164427724,31164,32563,-33511,61,eae9fe00,0.0,0.0,0.0,0.0,0.0,0.0
2026-05-22 16:35:24.263102,1779482124.263102,-316965,-231190,164427724,31164,32563,-33511,61,eae9fe00,0.0,0.0,0.0,0.0,0.0,0.0
2026-05-22 16:35:24.265289,1779482124.265289,-267059,-199909,164369700,42375,25460,-39228,61,eae9fe00,0.0,0.0,0.0,0.0,0.0,0.0
2026-05-22 16:35:24.268187,1779482124.268187,-267059,-199909,164369700,42375,25460,-39228,61,eae9fe00,0.0,0.0,0.0,0.0,0.0,0.0
2026-05-22 16:35:24.270480,1779482124.270480,-241213,-204518,164357541,36573,41277,-47824,61,eae9fe00,0.0,0.0,0.0,0.0,0.0,0.0
2026-05-22 16:35:24.273234,1779482124.273234,-241213,-204518,164357541,36573,41277,-47824,61,eae9fe00,0.0,0.0,0.0,0.0,0.0,0.0
2026-05-22 16:35:24.275414,1779482124.275414,-282589,-149703,164315810,52353,50526,-42316,61,eae9fe00,0.0,0.0,0.0,0.0,0.0,0.0
2026-05-22 16:35:24.278311,1779482124.278311,-282589,-149703,164315810,52353,50526,-42316,61,eae9fe00,0.0,0.0,0.0,0.0,0.0,0.0
2026-05-22 16:35:24.280697,1779482124.280697,-346548,-171151,164310850,68075,65203,-48188,61,eae9fe00,0.0,0.0,0.0,0.0,0.0,0.0
2026-05-22 16:35:24.282681,1779482124.282681,-346548,-171151,164310850,68075,65203,-48188,61,eae9fe00,0.0,0.0,0.0,0.0,0.0,0.0
2026-05-22 16:35:24.284070,1779482124.284070,-346120,-132627,164336200,55385,66849,-45381,61,eae9fe00,0.0,0.0,0.0,0.0,0.0,0.0
2026-05-22 16:35:24.285768,1779482124.285768,-346120,-132627,164336200,55385,66849,-45381,61,eae9fe00,0.0,0.0,0.0,0.0,0.0,0.0
2026-05-22 16:35:24.287830,1779482124.287830,-346120,-132627,164336200,55385,66849,-45381,61,eae9fe00,0.0,0.0,0.0,0.0,0.0,0.0
2026-05-22 16:35:24.288791,1779482124.288791,-313034,-157229,164360760,36422,63096,-61191,61,eae9fe00,0.0,0.0,0.0,0.0,0.0,0.0
2026-05-22 16:35:24.290405,1779482124.290405,-284981,-170470,164381864,55189,53913,-56092,61,eae9fe00,0.0,0.0,0.0,0.0,0.0,0.0
2026-05-22 16:35:24.294368,1779482124.294368,-284981,-170470,164381864,55189,53913,-56092,61,eae9fe00,0.0,0.0,0.0,0.0,0.0,0.0
2026-05-22 16:35:24.295579,1779482124.295579,-294130,-203726,164363577,68916,51853,-57436,61,eae9fe00,0.0,0.0,0.0,0.0,0.0,0.0
2026-05-22 16:35:24.297382,1779482124.297382,-294130,-203726,164363577,68916,51853,-57436,61,eae9fe00,0.0,0.0,0.0,0.0,0.0,0.0
2026-05-22 16:35:24.298654,1779482124.298654,-308376,-164617,164378744,77700,58380,-59204,61,eae9fe00,0.0,0.0,0.0,0.0,0.0,0.0
2026-05-22 16:35:24.300130,1779482124.300130,-308376,-164617,164378744,77700,58380,-59204,61,eae9fe00,0.0,0.0,0.0,0.0,0.0,0.0
2026-05-22 16:35:24.301278,1779482124.301278,-286168,-155951,164373888,52423,44100,-59388,61,eae9fe00,0.0,0.0,0.0,0.0,0.0,0.0
2026-05-22 16:35:24.302732,1779482124.302732,-286168,-155951,164373888,52423,44100,-59388,61,eae9fe00,0.0,0.0,0.0,0.0,0.0,0.0
2026-05-22 16:35:24.303912,1779482124.303912,-295521,-139268,164423277,78014,36658,-62397,61,eae9fe00,0.0,0.0,0.0,0.0,0.0,0.0
2026-05-22 16:35:24.305390,1779482124.305390,-295521,-139268,164423277,78014,36658,-62397,61,eae9fe00,0.0,0.0,0.0,0.0,0.0,0.0
2026-05-22 16:35:24.306594,1779482124.306594,-297957,-144716,164405259,68072,35858,-46951,61,eae9fe00,0.0,0.0,0.0,0.0,0.0,0.0
2026-05-22 16:35:24.308175,1779482124.308175,-297957,-144716,164405259,68072,35858,-46951,61,eae9fe00,0.0,0.0,0.0,0.0,0.0,0.0
2026-05-22 16:35:24.309574,1779482124.309574,-295678,-132890,164401764,39973,42110,-45295,61,eae9fe00,0.0,0.0,0.0,0.0,0.0,0.0
2026-05-22 16:35:24.311234,1779482124.311234,-295678,-132890,164401764,39973,42110,-45295,61,eae9fe00,0.0,0.0,0.0,0.0,0.0,0.0
2026-05-22 16:35:24.312534,1779482124.312534,-271954,-142738,164437666,19288,64311,-50688,61,eae9fe00,0.0,0.0,0.0,0.0,0.0,0.0
2026-05-22 16:35:24.314042,1779482124.314042,-271954,-142738,164437666,19288,64311,-50688,61,eae9fe00,0.0,0.0,0.0,0.0,0.0,0.0
2026-05-22 16:35:24.315271,1779482124.315271,-224291,-148416,164411623,45068,40783,-71567,61,eae9fe00,0.0,0.0,0.0,0.0,0.0,0.0
2026-05-22 16:35:24.316771,1779482124.316771,-224291,-148416,164411623,45068,40783,-71567,61,eae9fe00,0.0,0.0,0.0,0.0,0.0,0.0
2026-05-22 16:35:24.317992,1779482124.317992,-216475,-127104,164392349,52767,51813,-59880,61,eae9fe00,0.0,0.0,0.0,0.0,0.0,0.0
2026-05-22 16:35:24.319491,1779482124.319491,-216475,-127104,164392349,52767,51813,-59880,61,eae9fe00,0.0,0.0,0.0,0.0,0.0,0.0
2026-05-22 16:35:24.320671,1779482124.320671,-222337,-83659,164383951,65902,61557,-56259,61,eae9fe00,0.0,0.0,0.0,0.0,0.0,0.0
2026-05-22 16:35:24.326331,1779482124.326331,-222337,-83659,164383951,65902,61557,-56259,61,eae9fe00,0.0,0.0,0.0,0.0,0.0,0.0
2026-05-22 16:35:24.329611,1779482124.329611,-234869,-114298,164416749,67841,64485,-42354,61,eae9fe00,0.0,0.0,0.0,0.0,0.0,0.0
2026-05-22 16:35:24.331052,1779482124.331052,-234869,-114298,164416749,67841,64485,-42354,61,eae9fe00,0.0,0.0,0.0,0.0,0.0,0.0
2026-05-22 16:35:24.332197,1779482124.332197,-254127,-107713,164434133,58161,52019,-57521,61,eae9fe00,0.0,0.0,0.0,0.0,0.0,0.0
2026-05-22 16:35:24.335154,1779482124.335154,-254127,-107713,164434133,58161,52019,-57521,61,eae9fe00,0.0,0.0,0.0,0.0,0.0,0.0
2026-05-22 16:35:24.336328,1779482124.336328,-290029,-174355,164411419,48535,46605,-70953,61,eae9fe00,0.0,0.0,0.0,0.0,0.0,0.0
2026-05-22 16:35:24.337760,1779482124.337760,-290029,-174355,164411419,48535,46605,-70953,61,eae9fe00,0.0,0.0,0.0,0.0,0.0,0.0
2026-05-22 16:35:24.339373,1779482124.339373,-320775,-157041,164409609,21394,47442,-55259,61,eae8fe00,0.0,0.0,0.0,0.0,0.0,0.0
2026-05-22 16:35:24.340904,1779482124.340904,-320775,-157041,164409609,21394,47442,-55259,61,eae8fe00,0.0,0.0,0.0,0.0,0.0,0.0
2026-05-22 16:35:24.342116,1779482124.342116,-338971,-158826,164372406,1975,52748,-54047,61,eae9fe00,0.0,0.0,0.0,0.0,0.0,0.0
2026-05-22 16:35:24.343650,1779482124.343650,-338971,-158826,164372406,1975,52748,-54047,61,eae9fe00,0.0,0.0,0.0,0.0,0.0,0.0
2026-05-22 16:35:24.344855,1779482124.344855,-331349,-142669,164398929,-6529,40054,-67648,61,eae9fe00,0.0,0.0,0.0,0.0,0.0,0.0
2026-05-22 16:35:24.346279,1779482124.346279,-331349,-142669,164398929,-6529,40054,-67648,61,eae9fe00,0.0,0.0,0.0,0.0,0.0,0.0
2026-05-22 16:35:24.347550,1779482124.347550,-348507,-137197,164357479,10878,24120,-63616,61,eae9fe00,0.0,0.0,0.0,0.0,0.0,0.0
2026-05-22 16:35:24.349205,1779482124.349205,-348507,-137197,164357479,10878,24120,-63616,61,eae9fe00,0.0,0.0,0.0,0.0,0.0,0.0
2026-05-22 16:35:24.350551,1779482124.350551,-311613,-134282,164397590,16739,8579,-45829,61,eae9fe00,0.0,0.0,0.0,0.0,0.0,0.0
2026-05-22 16:35:24.352184,1779482124.352184,-311613,-134282,164397590,16739,8579,-45829,61,eae9fe00,0.0,0.0,0.0,0.0,0.0,0.0
2026-05-22 16:35:24.353538,1779482124.353538,-282651,-152657,164376377,26176,16208,-30557,61,eae9fe00,0.0,0.0,0.0,0.0,0.0,0.0
2026-05-22 16:35:24.355203,1779482124.355203,-282651,-152657,164376377,26176,16208,-30557,61,eae9fe00,0.0,0.0,0.0,0.0,0.0,0.0
2026-05-22 16:35:24.356534,1779482124.356534,-264654,-159819,164397044,45775,11480,-41045,61,eae8fe00,0.0,0.0,0.0,0.0,0.0,0.0
2026-05-22 16:35:24.359844,1779482124.359844,-264654,-159819,164397044,45775,11480,-41045,61,eae8fe00,0.0,0.0,0.0,0.0,0.0,0.0
2026-05-22 16:35:24.361095,1779482124.361095,-278645,-152191,164367598,32319,12727,-39982,61,eae9fe00,0.0,0.0,0.0,0.0,0.0,0.0
2026-05-22 16:35:24.362597,1779482124.362597,-278645,-152191,164367598,32319,12727,-39982,61,eae9fe00,0.0,0.0,0.0,0.0,0.0,0.0
2026-05-22 16:35:24.363767,1779482124.363767,-279620,-140507,164393656,40330,31584,-36749,61,eae9fe00,0.0,0.0,0.0,0.0,0.0,0.0
2026-05-22 16:35:24.365170,1779482124.365170,-279620,-140507,164393656,40330,31584,-36749,61,eae9fe00,0.0,0.0,0.0,0.0,0.0,0.0
2026-05-22 16:35:24.366284,1779482124.366284,-256032,-136049,164377771,12343,29661,-34601,61,eae9fe00,0.0,0.0,0.0,0.0,0.0,0.0
2026-05-22 16:35:24.367650,1779482124.367650,-256032,-136049,164377771,12343,29661,-34601,61,eae9fe00,0.0,0.0,0.0,0.0,0.0,0.0
2026-05-22 16:35:24.368748,1779482124.368748,-247736,-178075,164345609,20790,52194,-41246,61,eae9fe00,0.0,0.0,0.0,0.0,0.0,0.0
2026-05-22 16:35:24.370182,1779482124.370182,-247736,-178075,164345609,20790,52194,-41246,61,eae9fe00,0.0,0.0,0.0,0.0,0.0,0.0
2026-05-22 16:35:24.371335,1779482124.371335,-279404,-186763,164362280,24902,35985,-45242,61,eae9fe00,0.0,0.0,0.0,0.0,0.0,0.0
2026-05-22 16:35:24.372705,1779482124.372705,-279404,-186763,164362280,24902,35985,-45242,61,eae9fe00,0.0,0.0,0.0,0.0,0.0,0.0
2026-05-22 16:35:24.373848,1779482124.373848,-315838,-136329,164401864,30102,49311,-19603,61,eae9fe00,0.0,0.0,0.0,0.0,0.0,0.0
2026-05-22 16:35:24.375337,1779482124.375337,-315838,-136329,164401864,30102,49311,-19603,61,eae9fe00,0.0,0.0,0.0,0.0,0.0,0.0
2026-05-22 16:35:24.376562,1779482124.376562,-362366,-167447,164468131,17868,30944,-6304,61,eae9fe00,0.0,0.0,0.0,0.0,0.0,0.0
2026-05-22 16:35:24.378045,1779482124.378045,-362366,-167447,164468131,17868,30944,-6304,61,eae9fe00,0.0,0.0,0.0,0.0,0.0,0.0
2026-05-22 16:35:24.379201,1779482124.379201,-364633,-158397,164459400,26606,25661,6006,61,eae9fe00,0.0,0.0,0.0,0.0,0.0,0.0
2026-05-22 16:35:24.380666,1779482124.380666,-364633,-158397,164459400,26606,25661,6006,61,eae9fe00,0.0,0.0,0.0,0.0,0.0,0.0
2026-05-22 16:35:24.381835,1779482124.381835,-403993,-186316,164419255,43249,28651,-12217,61,eae9fe00,0.0,0.0,0.0,0.0,0.0,0.0
2026-05-22 16:35:24.383300,1779482124.383300,-403993,-186316,164419255,43249,28651,-12217,61,eae9fe00,0.0,0.0,0.0,0.0,0.0,0.0
2026-05-22 16:35:24.384477,1779482124.384477,-392208,-184206,164380149,54212,33503,-16504,61,eae9fe00,0.0,0.0,0.0,0.0,0.0,0.0
2026-05-22 16:35:24.387703,1779482124.387703,-392208,-184206,164380149,54212,33503,-16504,61,eae9fe00,0.0,0.0,0.0,0.0,0.0,0.0
2026-05-22 16:35:24.388959,1779482124.388959,-398990,-163669,164341174,73833,36354,-25780,61,eae9fe00,0.0,0.0,0.0,0.0,0.0,0.0
2026-05-22 16:35:24.390427,1779482124.390427,-398990,-163669,164341174,73833,36354,-25780,61,eae9fe00,0.0,0.0,0.0,0.0,0.0,0.0
2026-05-22 16:35:24.391610,1779482124.391610,-365572,-178510,164367253,60526,39674,-18200,61,eae9fe00,0.0,0.0,0.0,0.0,0.0,0.0
2026-05-22 16:35:24.393091,1779482124.393091,-365572,-178510,164367253,60526,39674,-18200,61,eae9fe00,0.0,0.0,0.0,0.0,0.0,0.0
2026-05-22 16:35:24.394303,1779482124.394303,-317889,-157541,164384815,63801,34331,-24464,61,eae9fe00,0.0,0.0,0.0,0.0,0.0,0.0
2026-05-22 16:35:24.395783,1779482124.395783,-317889,-157541,164384815,63801,34331,-24464,61,eae9fe00,0.0,0.0,0.0,0.0,0.0,0.0
2026-05-22 16:35:24.396941,1779482124.396941,-284027,-163921,164429178,50545,37341,-24230,61,eae9fe00,0.0,0.0,0.0,0.0,0.0,0.0
2026-05-22 16:35:24.398395,1779482124.398395,-284027,-163921,164429178,50545,37341,-24230,61,eae9fe00,0.0,0.0,0.0,0.0,0.0,0.0
2026-05-22 16:35:24.399539,1779482124.399539,-274341,-162683,164403850,51658,26251,-21309,61,eae9fe00,0.0,0.0,0.0,0.0,0.0,0.0
2026-05-22 16:35:24.400896,1779482124.400896,-274341,-162683,164403850,51658,26251,-21309,61,eae9fe00,0.0,0.0,0.0,0.0,0.0,0.0
2026-05-22 16:35:24.401984,1779482124.401984,-241139,-161560,164394667,71335,52909,-17795,61,eae9fe00,0.0,0.0,0.0,0.0,0.0,0.0
2026-05-22 16:35:24.404131,1779482124.404131,-241139,-161560,164394667,71335,52909,-17795,61,eae9fe00,0.0,0.0,0.0,0.0,0.0,0.0
2026-05-22 16:35:24.405954,1779482124.405954,-273893,-157490,164365060,55250,44355,-23685,61,eae9fe00,0.0,0.0,0.0,0.0,0.0,0.0
2026-05-22 16:35:24.407396,1779482124.407396,-273893,-157490,164365060,55250,44355,-23685,61,eae9fe00,0.0,0.0,0.0,0.0,0.0,0.0
2026-05-22 16:35:24.408786,1779482124.408786,-261245,-110777,164401124,58029,63837,-27588,61,eae9fe00,0.0,0.0,0.0,0.0,0.0,0.0
2026-05-22 16:35:24.410563,1779482124.410563,-261245,-110777,164401124,58029,63837,-27588,61,eae9fe00,0.0,0.0,0.0,0.0,0.0,0.0
2026-05-22 16:35:24.411918,1779482124.411918,-291571,-135216,164411751,57351,43790,-46213,61,eae9fe00,0.0,0.0,0.0,0.0,0.0,0.0
2026-05-22 16:35:24.413367,1779482124.413367,-291571,-135216,164411751,57351,43790,-46213,61,eae9fe00,0.0,0.0,0.0,0.0,0.0,0.0
2026-05-22 16:35:24.414490,1779482124.414490,-265054,-141145,164424365,90401,35783,-49312,61,eae9fe00,0.0,0.0,0.0,0.0,0.0,0.0
2026-05-22 16:35:24.417537,1779482124.417537,-265054,-141145,164424365,90401,35783,-49312,61,eae9fe00,0.0,0.0,0.0,0.0,0.0,0.0
2026-05-22 16:35:24.418717,1779482124.418717,-296988,-143436,164400750,68013,18081,-56649,61,eae9fe00,0.0,0.0,0.0,0.0,0.0,0.0
2026-05-22 16:35:24.420114,1779482124.420114,-296988,-143436,164400750,68013,18081,-56649,61,eae9fe00,0.0,0.0,0.0,0.0,0.0,0.0
2026-05-22 16:35:24.421220,1779482124.421220,-300738,-128112,164390286,84250,24857,-28202,61,eae9fe00,0.0,0.0,0.0,0.0,0.0,0.0
2026-05-22 16:35:24.422561,1779482124.422561,-300738,-128112,164390286,84250,24857,-28202,61,eae9fe00,0.0,0.0,0.0,0.0,0.0,0.0
2026-05-22 16:35:24.423632,1779482124.423632,-306248,-82073,164362117,78745,19069,-41346,61,eae9fe00,0.0,0.0,0.0,0.0,0.0,0.0
2026-05-22 16:35:24.424942,1779482124.424942,-306248,-82073,164362117,78745,19069,-41346,61,eae9fe00,0.0,0.0,0.0,0.0,0.0,0.0
2026-05-22 16:35:24.425968,1779482124.425968,-286233,-96548,164387015,72494,18655,-45689,61,eae9fe00,0.0,0.0,0.0,0.0,0.0,0.0
2026-05-22 16:35:24.427272,1779482124.427272,-286233,-96548,164387015,72494,18655,-45689,61,eae9fe00,0.0,0.0,0.0,0.0,0.0,0.0
2026-05-22 16:35:24.428324,1779482124.428324,-289301,-110585,164393512,41058,23149,-60846,61,eae9fe00,0.0,0.0,0.0,0.0,0.0,0.0
2026-05-22 16:35:24.429624,1779482124.429624,-289301,-110585,164393512,41058,23149,-60846,61,eae9fe00,0.0,0.0,0.0,0.0,0.0,0.0
2026-05-22 16:35:24.430671,1779482124.430671,-281082,-159392,164412401,17681,15250,-57691,61,eae9fe00,0.0,0.0,0.0,0.0,0.0,0.0
2026-05-22 16:35:24.432000,1779482124.432000,-281082,-159392,164412401,17681,15250,-57691,61,eae9fe00,0.0,0.0,0.0,0.0,0.0,0.0
2026-05-22 16:35:24.433172,1779482124.433172,-336522,-130669,164398479,6531,24324,-58076,61,eae9fe00,0.0,0.0,0.0,0.0,0.0,0.0
2026-05-22 16:35:24.434555,1779482124.434555,-336522,-130669,164398479,6531,24324,-58076,61,eae9fe00,0.0,0.0,0.0,0.0,0.0,0.0
2026-05-22 16:35:24.435645,1779482124.435645,-325451,-139261,164402910,24569,28255,-59357,61,eae9fe00,0.0,0.0,0.0,0.0,0.0,0.0
2026-05-22 16:35:24.437035,1779482124.437035,-325451,-139261,164402910,24569,28255,-59357,61,eae9fe00,0.0,0.0,0.0,0.0,0.0,0.0
2026-05-22 16:35:24.438154,1779482124.438154,-344648,-107935,164379791,41060,25160,-58884,61,eae9fe00,0.0,0.0,0.0,0.0,0.0,0.0
2026-05-22 16:35:24.439541,1779482124.439541,-344648,-107935,164379791,41060,25160,-58884,61,eae9fe00,0.0,0.0,0.0,0.0,0.0,0.0
2026-05-22 16:35:24.440667,1779482124.440667,-286996,-115913,164398747,41014,20589,-45961,61,eae9fe00,0.0,0.0,0.0,0.0,0.0,0.0
2026-05-22 16:35:24.443751,1779482124.443751,-286996,-115913,164398747,41014,20589,-45961,61,eae9fe00,0.0,0.0,0.0,0.0,0.0,0.0
2026-05-22 16:35:24.444996,1779482124.444996,-276852,-159008,164375585,49292,40647,-36758,61,eae9fe00,0.0,0.0,0.0,0.0,0.0,0.0
2026-05-22 16:35:24.446525,1779482124.446525,-276852,-159008,164375585,49292,40647,-36758,61,eae9fe00,0.0,0.0,0.0,0.0,0.0,0.0
2026-05-22 16:35:24.447689,1779482124.447689,-287528,-164208,164365620,48488,39554,-19203,61,eae9fe00,0.0,0.0,0.0,0.0,0.0,0.0
2026-05-22 16:35:24.449107,1779482124.449107,-287528,-164208,164365620,48488,39554,-19203,61,eae9fe00,0.0,0.0,0.0,0.0,0.0,0.0
2026-05-22 16:35:24.450240,1779482124.450240,-310166,-178418,164386987,59583,46001,-19949,61,eae9fe00,0.0,0.0,0.0,0.0,0.0,0.0
2026-05-22 16:35:24.451633,1779482124.451633,-310166,-178418,164386987,59583,46001,-19949,61,eae9fe00,0.0,0.0,0.0,0.0,0.0,0.0
2026-05-22 16:35:24.452758,1779482124.452758,-290383,-154452,164381923,56818,30141,-50029,61,eae9fe00,0.0,0.0,0.0,0.0,0.0,0.0
2026-05-22 16:35:24.454187,1779482124.454187,-290383,-154452,164381923,56818,30141,-50029,61,eae9fe00,0.0,0.0,0.0,0.0,0.0,0.0
2026-05-22 16:35:24.455308,1779482124.455308,-303300,-152964,164405272,29751,20270,-71676,61,eae9fe00,0.0,0.0,0.0,0.0,0.0,0.0
2026-05-22 16:35:24.456689,1779482124.456689,-303300,-152964,164405272,29751,20270,-71676,61,eae9fe00,0.0,0.0,0.0,0.0,0.0,0.0
2026-05-22 16:35:24.458011,1779482124.458011,-291731,-171024,164379396,18653,26456,-74510,61,eae9fe00,0.0,0.0,0.0,0.0,0.0,0.0
2026-05-22 16:35:24.459571,1779482124.459571,-291731,-171024,164379396,18653,26456,-74510,61,eae9fe00,0.0,0.0,0.0,0.0,0.0,0.0
2026-05-22 16:35:24.460800,1779482124.460800,-315452,-149094,164397583,13238,39841,-60783,61,eae9fe00,0.0,0.0,0.0,0.0,0.0,0.0
2026-05-22 16:35:24.462249,1779482124.462249,-315452,-149094,164397583,13238,39841,-60783,61,eae9fe00,0.0,0.0,0.0,0.0,0.0,0.0
2026-05-22 16:35:24.463486,1779482124.463486,-317497,-159350,164406584,37041,35236,-54124,61,eae9fe00,0.0,0.0,0.0,0.0,0.0,0.0
2026-05-22 16:35:24.465010,1779482124.465010,-317497,-159350,164406584,37041,35236,-54124,61,eae9fe00,0.0,0.0,0.0,0.0,0.0,0.0
2026-05-22 16:35:24.466235,1779482124.466235,-298580,-173260,164422228,31896,46886,-66433,61,eae8fe00,0.0,0.0,0.0,0.0,0.0,0.0
2026-05-22 16:35:24.467753,1779482124.467753,-298580,-173260,164422228,31896,46886,-66433,61,eae8fe00,0.0,0.0,0.0,0.0,0.0,0.0
2026-05-22 16:35:24.468994,1779482124.468994,-286383,-162075,164422436,18459,58244,-45827,61,eae9fe00,0.0,0.0,0.0,0.0,0.0,0.0
2026-05-22 16:35:24.472171,1779482124.472171,-286383,-162075,164422436,18459,58244,-45827,61,eae9fe00,0.0,0.0,0.0,0.0,0.0,0.0
2026-05-22 16:35:24.474031,1779482124.474031,-253096,-172475,164394958,-4209,64949,-60614,61,eae9fe00,0.0,0.0,0.0,0.0,0.0,0.0
2026-05-22 16:35:24.475506,1779482124.475506,-253096,-172475,164394958,-4209,64949,-60614,61,eae9fe00,0.0,0.0,0.0,0.0,0.0,0.0
2026-05-22 16:35:24.476631,1779482124.476631,-247442,-191571,164387384,14917,57600,-53334,61,eae9fe00,0.0,0.0,0.0,0.0,0.0,0.0
2026-05-22 16:35:24.478068,1779482124.478068,-247442,-191571,164387384,14917,57600,-53334,61,eae9fe00,0.0,0.0,0.0,0.0,0.0,0.0
2026-05-22 16:35:24.479298,1779482124.479298,-303439,-170764,164338408,16666,49911,-57578,61,eae9fe00,0.0,0.0,0.0,0.0,0.0,0.0
2026-05-22 16:35:24.480782,1779482124.480782,-303439,-170764,164338408,16666,49911,-57578,61,eae9fe00,0.0,0.0,0.0,0.0,0.0,0.0
2026-05-22 16:35:24.481939,1779482124.481939,-332950,-175368,164341808,52616,50386,-34587,61,eae9fe00,0.0,0.0,0.0,0.0,0.0,0.0
2026-05-22 16:35:24.483353,1779482124.483353,-332950,-175368,164341808,52616,50386,-34587,61,eae9fe00,0.0,0.0,0.0,0.0,0.0,0.0
2026-05-22 16:35:24.484472,1779482124.484472,-354024,-132538,164386553,61668,40049,-51003,61,eae9fe00,0.0,0.0,0.0,0.0,0.0,0.0
2026-05-22 16:35:24.485858,1779482124.485858,-354024,-132538,164386553,61668,40049,-51003,61,eae9fe00,0.0,0.0,0.0,0.0,0.0,0.0
2026-05-22 16:35:24.486975,1779482124.486975,-315020,-138131,164409366,84795,53799,-53777,61,eae9fe00,0.0,0.0,0.0,0.0,0.0,0.0
2026-05-22 16:35:24.488382,1779482124.488382,-315020,-138131,164409366,84795,53799,-53777,61,eae9fe00,0.0,0.0,0.0,0.0,0.0,0.0
2026-05-22 16:35:24.489505,1779482124.489505,-276104,-112128,164427734,68852,52211,-67935,61,eae9fe00,0.0,0.0,0.0,0.0,0.0,0.0
2026-05-22 16:35:24.490910,1779482124.490910,-276104,-112128,164427734,68852,52211,-67935,61,eae9fe00,0.0,0.0,0.0,0.0,0.0,0.0
2026-05-22 16:35:24.492046,1779482124.492046,-246203,-148437,164383704,80035,49427,-41246,61,eae9fe00,0.0,0.0,0.0,0.0,0.0,0.0
2026-05-22 16:35:24.493478,1779482124.493478,-246203,-148437,164383704,80035,49427,-41246,61,eae9fe00,0.0,0.0,0.0,0.0,0.0,0.0
2026-05-22 16:35:24.494602,1779482124.494602,-232812,-156061,164393632,70362,34313,-28160,61,eae9fe00,0.0,0.0,0.0,0.0,0.0,0.0
2026-05-22 16:35:24.496004,1779482124.496004,-232812,-156061,164393632,70362,34313,-28160,61,eae9fe00,0.0,0.0,0.0,0.0,0.0,0.0
2026-05-22 16:35:24.497125,1779482124.497125,-218736,-148577,164382308,53946,14692,-32986,61,eae9fe00,0.0,0.0,0.0,0.0,0.0,0.0
2026-05-22 16:35:24.500169,1779482124.500169,-218736,-148577,164382308,53946,14692,-32986,61,eae9fe00,0.0,0.0,0.0,0.0,0.0,0.0
2026-05-22 16:35:24.501356,1779482124.501356,-262421,-167531,164420799,47038,39070,-43520,61,eae9fe00,0.0,0.0,0.0,0.0,0.0,0.0
2026-05-22 16:35:24.502767,1779482124.502767,-262421,-167531,164420799,47038,39070,-43520,61,eae9fe00,0.0,0.0,0.0,0.0,0.0,0.0
2026-05-22 16:35:24.503993,1779482124.503993,-301594,-153407,164465584,26781,27809,-56566,61,eae9fe00,0.0,0.0,0.0,0.0,0.0,0.0
2026-05-22 16:35:24.505397,1779482124.505397,-301594,-153407,164465584,26781,27809,-56566,61,eae9fe00,0.0,0.0,0.0,0.0,0.0,0.0
2026-05-22 16:35:24.506480,1779482124.506480,-340906,-192815,164465717,58235,24141,-50443,61,eae9fe00,0.0,0.0,0.0,0.0,0.0,0.0
2026-05-22 16:35:24.507814,1779482124.507814,-340906,-192815,164465717,58235,24141,-50443,61,eae9fe00,0.0,0.0,0.0,0.0,0.0,0.0
2026-05-22 16:35:24.508879,1779482124.508879,-309320,-230892,164467733,65831,15938,-75430,61,eae9fe00,0.0,0.0,0.0,0.0,0.0,0.0
2026-05-22 16:35:24.510339,1779482124.510339,-309320,-230892,164467733,65831,15938,-75430,61,eae9fe00,0.0,0.0,0.0,0.0,0.0,0.0
2026-05-22 16:35:24.511806,1779482124.511806,-281832,-214234,164389275,75345,29538,-72215,61,eae9fe00,0.0,0.0,0.0,0.0,0.0,0.0
2026-05-22 16:35:24.513254,1779482124.513254,-281832,-214234,164389275,75345,29538,-72215,61,eae9fe00,0.0,0.0,0.0,0.0,0.0,0.0
2026-05-22 16:35:24.514398,1779482124.514398,-261284,-177673,164380725,90223,46116,-72019,61,eae9fe00,0.0,0.0,0.0,0.0,0.0,0.0
2026-05-22 16:35:24.515805,1779482124.515805,-261284,-177673,164380725,90223,46116,-72019,61,eae9fe00,0.0,0.0,0.0,0.0,0.0,0.0
2026-05-22 16:35:24.516929,1779482124.516929,-281808,-135885,164369647,82004,42405,-60913,61,eae9fe00,0.0,0.0,0.0,0.0,0.0,0.0
2026-05-22 16:35:24.518315,1779482124.518315,-281808,-135885,164369647,82004,42405,-60913,61,eae9fe00,0.0,0.0,0.0,0.0,0.0,0.0
2026-05-22 16:35:24.519461,1779482124.519461,-284444,-81736,164378523,62524,40014,-50225,61,eae9fe00,0.0,0.0,0.0,0.0,0.0,0.0
2026-05-22 16:35:24.520943,1779482124.520943,-284444,-81736,164378523,62524,40014,-50225,61,eae9fe00,0.0,0.0,0.0,0.0,0.0,0.0
2026-05-22 16:35:24.522077,1779482124.522077,-280454,-69682,164422078,49619,35471,-47860,61,eae9fe00,0.0,0.0,0.0,0.0,0.0,0.0
2026-05-22 16:35:24.523497,1779482124.523497,-280454,-69682,164422078,49619,35471,-47860,61,eae9fe00,0.0,0.0,0.0,0.0,0.0,0.0
2026-05-22 16:35:24.524702,1779482124.524702,-266138,-109086,164414419,67336,40430,-36694,61,eae9fe00,0.0,0.0,0.0,0.0,0.0,0.0
2026-05-22 16:35:24.527787,1779482124.527787,-266138,-109086,164414419,67336,40430,-36694,61,eae9fe00,0.0,0.0,0.0,0.0,0.0,0.0
2026-05-22 16:35:24.528977,1779482124.528977,-317987,-120914,164374371,74868,46309,-31369,61,eae9fe00,0.0,0.0,0.0,0.0,0.0,0.0
2026-05-22 16:35:24.530407,1779482124.530407,-317987,-120914,164374371,74868,46309,-31369,61,eae9fe00,0.0,0.0,0.0,0.0,0.0,0.0
2026-05-22 16:35:24.531557,1779482124.531557,-356176,-161738,164364481,68726,63580,-10357,61,eae9fe00,0.0,0.0,0.0,0.0,0.0,0.0
2026-05-22 16:35:24.533025,1779482124.533025,-356176,-161738,164364481,68726,63580,-10357,61,eae9fe00,0.0,0.0,0.0,0.0,0.0,0.0
2026-05-22 16:35:24.534290,1779482124.534290,-385025,-145429,164340634,51795,75281,-26564,61,eae9fe00,0.0,0.0,0.0,0.0,0.0,0.0
2026-05-22 16:35:24.535746,1779482124.535746,-385025,-145429,164340634,51795,75281,-26564,61,eae9fe00,0.0,0.0,0.0,0.0,0.0,0.0
2026-05-22 16:35:24.536937,1779482124.536937,-338276,-178668,164379124,32690,75504,-26925,61,eae9fe00,0.0,0.0,0.0,0.0,0.0,0.0
2026-05-22 16:35:24.538393,1779482124.538393,-338276,-178668,164379124,32690,75504,-26925,61,eae9fe00,0.0,0.0,0.0,0.0,0.0,0.0
2026-05-22 16:35:24.539551,1779482124.539551,-261017,-181929,164390477,39961,33705,-62214,61,eae9fe00,0.0,0.0,0.0,0.0,0.0,0.0
2026-05-22 16:35:24.541006,1779482124.541006,-261017,-181929,164390477,39961,33705,-62214,61,eae9fe00,0.0,0.0,0.0,0.0,0.0,0.0
2026-05-22 16:35:24.542300,1779482124.542300,-244258,-213657,164394585,43069,13707,-61812,61,eae9fe00,0.0,0.0,0.0,0.0,0.0,0.0
2026-05-22 16:35:24.543792,1779482124.543792,-244258,-213657,164394585,43069,13707,-61812,61,eae9fe00,0.0,0.0,0.0,0.0,0.0,0.0
2026-05-22 16:35:24.545018,1779482124.545018,-234716,-213191,164388778,45367,28106,-53901,61,eae9fe00,0.0,0.0,0.0,0.0,0.0,0.0
2026-05-22 16:35:24.546511,1779482124.546511,-234716,-213191,164388778,45367,28106,-53901,61,eae9fe00,0.0,0.0,0.0,0.0,0.0,0.0
2026-05-22 16:35:24.547680,1779482124.547680,-271499,-198773,164416031,23845,39427,-38288,61,eae9fe00,0.0,0.0,0.0,0.0,0.0,0.0
2026-05-22 16:35:24.549134,1779482124.549134,-271499,-198773,164416031,23845,39427,-38288,61,eae9fe00,0.0,0.0,0.0,0.0,0.0,0.0
2026-05-22 16:35:24.550316,1779482124.550316,-306883,-182178,164456547,30027,60874,-18153,61,eae9fe00,0.0,0.0,0.0,0.0,0.0,0.0
2026-05-22 16:35:24.551796,1779482124.551796,-306883,-182178,164456547,30027,60874,-18153,61,eae9fe00,0.0,0.0,0.0,0.0,0.0,0.0
2026-05-22 16:35:24.552980,1779482124.552980,-334275,-145596,164442993,32308,38806,-6273,61,eae9fe00,0.0,0.0,0.0,0.0,0.0,0.0
2026-05-22 16:35:24.554448,1779482124.554448,-334275,-145596,164442993,32308,38806,-6273,61,eae9fe00,0.0,0.0,0.0,0.0,0.0,0.0
2026-05-22 16:35:24.555623,1779482124.555623,-340580,-146451,164411736,66084,41144,-20625,61,eae9fe00,0.0,0.0,0.0,0.0,0.0,0.0
2026-05-22 16:35:24.557061,1779482124.557061,-340580,-146451,164411736,66084,41144,-20625,61,eae9fe00,0.0,0.0,0.0,0.0,0.0,0.0
2026-05-22 16:35:24.558290,1779482124.558290,-281930,-174670,164354306,43901,47458,-23402,61,eae9fe00,0.0,0.0,0.0,0.0,0.0,0.0
2026-05-22 16:35:24.559785,1779482124.559785,-281930,-174670,164354306,43901,47458,-23402,61,eae9fe00,0.0,0.0,0.0,0.0,0.0,0.0
2026-05-22 16:35:24.561004,1779482124.561004,-317080,-92944,164403954,76921,59561,-23147,61,eae9fe00,0.0,0.0,0.0,0.0,0.0,0.0
2026-05-22 16:35:24.562538,1779482124.562538,-317080,-92944,164403954,76921,59561,-23147,61,eae9fe00,0.0,0.0,0.0,0.0,0.0,0.0
2026-05-22 16:35:24.563783,1779482124.563783,-300319,-105281,164398836,89422,68559,-43550,61,eae9fe00,0.0,0.0,0.0,0.0,0.0,0.0
2026-05-22 16:35:24.566921,1779482124.566921,-300319,-105281,164398836,89422,68559,-43550,61,eae9fe00,0.0,0.0,0.0,0.0,0.0,0.0
2026-05-22 16:35:24.568181,1779482124.568181,-260446,-186633,164490087,44749,43418,-32317,61,eae9fe00,0.0,0.0,0.0,0.0,0.0,0.0
2026-05-22 16:35:24.569693,1779482124.569693,-260446,-186633,164490087,44749,43418,-32317,61,eae9fe00,0.0,0.0,0.0,0.0,0.0,0.0
2026-05-22 16:35:24.570882,1779482124.570882,-297618,-199109,164441446,28300,36933,-45586,61,eae8fe00,0.0,0.0,0.0,0.0,0.0,0.0
2026-05-22 16:35:24.572356,1779482124.572356,-297618,-199109,164441446,28300,36933,-45586,61,eae8fe00,0.0,0.0,0.0,0.0,0.0,0.0
2026-05-22 16:35:24.573578,1779482124.573578,-258741,-137540,164392299,23489,23720,-36334,61,eae8fe00,0.0,0.0,0.0,0.0,0.0,0.0
2026-05-22 16:35:24.575065,1779482124.575065,-258741,-137540,164392299,23489,23720,-36334,61,eae8fe00,0.0,0.0,0.0,0.0,0.0,0.0
2026-05-22 16:35:24.576301,1779482124.576301,-277497,-161949,164421639,30896,18725,-13274,61,eae9fe00,0.0,0.0,0.0,0.0,0.0,0.0
2026-05-22 16:35:24.577799,1779482124.577799,-277497,-161949,164421639,30896,18725,-13274,61,eae9fe00,0.0,0.0,0.0,0.0,0.0,0.0
2026-05-22 16:35:24.578972,1779482124.578972,-317095,-218272,164467546,73493,68900,-38359,61,eae9fe00,0.0,0.0,0.0,0.0,0.0,0.0
2026-05-22 16:35:24.580427,1779482124.580427,-317095,-218272,164467546,73493,68900,-38359,61,eae9fe00,0.0,0.0,0.0,0.0,0.0,0.0
2026-05-22 16:35:24.581604,1779482124.581604,-283536,-83170,164433081,89620,35696,-48922,61,eae9fe00,0.0,0.0,0.0,0.0,0.0,0.0
2026-05-22 16:35:24.583137,1779482124.583137,-283536,-83170,164433081,89620,35696,-48922,61,eae9fe00,0.0,0.0,0.0,0.0,0.0,0.0
2026-05-22 16:35:24.584335,1779482124.584335,-300111,-176821,164412969,87510,83874,-28235,61,eae9fe00,0.0,0.0,0.0,0.0,0.0,0.0
2026-05-22 16:35:24.585819,1779482124.585819,-300111,-176821,164412969,87510,83874,-28235,61,eae9fe00,0.0,0.0,0.0,0.0,0.0,0.0
2026-05-22 16:35:24.587015,1779482124.587015,-271761,-195400,164437566,32892,55709,-38734,61,eae9fe00,0.0,0.0,0.0,0.0,0.0,0.0
2026-05-22 16:35:24.588447,1779482124.588447,-271761,-195400,164437566,32892,55709,-38734,61,eae9fe00,0.0,0.0,0.0,0.0,0.0,0.0
2026-05-22 16:35:24.589599,1779482124.589599,-337723,-171165,164377133,67366,41287,-54537,61,eae9fe00,0.0,0.0,0.0,0.0,0.0,0.0
2026-05-22 16:35:24.591066,1779482124.591066,-337723,-171165,164377133,67366,41287,-54537,61,eae9fe00,0.0,0.0,0.0,0.0,0.0,0.0
2026-05-22 16:35:24.592209,1779482124.592209,-280172,-187370,164393821,97201,20435,-22702,61,eae9fe00,0.0,0.0,0.0,0.0,0.0,0.0
2026-05-22 16:35:24.595333,1779482124.595333,-280172,-187370,164393821,97201,20435,-22702,61,eae9fe00,0.0,0.0,0.0,0.0,0.0,0.0
2026-05-22 16:35:24.596512,1779482124.596512,-309896,-113683,164431161,19863,27266,-51081,61,eae9fe00,0.0,0.0,0.0,0.0,0.0,0.0
2026-05-22 16:35:24.598013,1779482124.598013,-309896,-113683,164431161,19863,27266,-51081,61,eae9fe00,0.0,0.0,0.0,0.0,0.0,0.0
2026-05-22 16:35:24.599273,1779482124.599273,-350478,-126280,164383542,47264,77353,-36572,61,eae9fe00,0.0,0.0,0.0,0.0,0.0,0.0
2026-05-22 16:35:24.600803,1779482124.600803,-350478,-126280,164383542,47264,77353,-36572,61,eae9fe00,0.0,0.0,0.0,0.0,0.0,0.0
2026-05-22 16:35:24.602054,1779482124.602054,-318240,-72258,164428529,38452,32760,4645,61,eae9fe00,0.0,0.0,0.0,0.0,0.0,0.0
2026-05-22 16:35:24.603616,1779482124.603616,-318240,-72258,164428529,38452,32760,4645,61,eae9fe00,0.0,0.0,0.0,0.0,0.0,0.0
2026-05-22 16:35:24.604857,1779482124.604857,-323211,-126678,164331084,49052,9791,-12069,61,eae9fe00,0.0,0.0,0.0,0.0,0.0,0.0
2026-05-22 16:35:24.606405,1779482124.606405,-323211,-126678,164331084,49052,9791,-12069,61,eae9fe00,0.0,0.0,0.0,0.0,0.0,0.0
2026-05-22 16:35:24.607557,1779482124.607557,-274266,-169197,164428115,68782,27431,-54516,61,eae9fe00,0.0,0.0,0.0,0.0,0.0,0.0
2026-05-22 16:35:24.608980,1779482124.608980,-274266,-169197,164428115,68782,27431,-54516,61,eae9fe00,0.0,0.0,0.0,0.0,0.0,0.0
2026-05-22 16:35:24.610283,1779482124.610283,-342247,-148826,164412994,78898,14529,-52880,61,eae9fe00,0.0,0.0,0.0,0.0,0.0,0.0
2026-05-22 16:35:24.611810,1779482124.611810,-342247,-148826,164412994,78898,14529,-52880,61,eae9fe00,0.0,0.0,0.0,0.0,0.0,0.0
2026-05-22 16:35:24.613137,1779482124.613137,-252945,-115418,164388809,45378,44512,-65334,61,eae9fe00,0.0,0.0,0.0,0.0,0.0,0.0
2026-05-22 16:35:24.614740,1779482124.614740,-252945,-115418,164388809,45378,44512,-65334,61,eae9fe00,0.0,0.0,0.0,0.0,0.0,0.0
2026-05-22 16:35:24.616003,1779482124.616003,-280792,-123355,164355649,51815,56125,-57088,61,eae9fe00,0.0,0.0,0.0,0.0,0.0,0.0
2026-05-22 16:35:24.617567,1779482124.617567,-280792,-123355,164355649,51815,56125,-57088,61,eae9fe00,0.0,0.0,0.0,0.0,0.0,0.0
2026-05-22 16:35:24.618812,1779482124.618812,-299148,-148559,164348690,45799,50553,-4924,61,eae9fe00,0.0,0.0,0.0,0.0,0.0,0.0
2026-05-22 16:35:24.620367,1779482124.620367,-299148,-148559,164348690,45799,50553,-4924,61,eae9fe00,0.0,0.0,0.0,0.0,0.0,0.0
2026-05-22 16:35:24.621665,1779482124.621665,-308166,-125402,164399592,88556,78977,-24326,61,eae9fe00,0.0,0.0,0.0,0.0,0.0,0.0
2026-05-22 16:35:24.625038,1779482124.625038,-308166,-125402,164399592,88556,78977,-24326,61,eae9fe00,0.0,0.0,0.0,0.0,0.0,0.0
2026-05-22 16:35:24.626321,1779482124.626321,-346796,-162958,164399724,73136,60182,-62831,61,eae9fe00,0.0,0.0,0.0,0.0,0.0,0.0
2026-05-22 16:35:24.627891,1779482124.627891,-346796,-162958,164399724,73136,60182,-62831,61,eae9fe00,0.0,0.0,0.0,0.0,0.0,0.0
2026-05-22 16:35:24.629244,1779482124.629244,-315700,-173229,164477386,77254,36077,-20195,61,eae9fe00,0.0,0.0,0.0,0.0,0.0,0.0
2026-05-22 16:35:24.630794,1779482124.630794,-315700,-173229,164477386,77254,36077,-20195,61,eae9fe00,0.0,0.0,0.0,0.0,0.0,0.0
2026-05-22 16:35:24.632192,1779482124.632192,-299573,-177599,164416969,47572,38436,-31006,61,eae9fe00,0.0,0.0,0.0,0.0,0.0,0.0
2026-05-22 16:35:24.633823,1779482124.633823,-299573,-177599,164416969,47572,38436,-31006,61,eae9fe00,0.0,0.0,0.0,0.0,0.0,0.0
2026-05-22 16:35:24.635121,1779482124.635121,-314556,-155372,164381548,32768,37389,-65446,61,eae9fe00,0.0,0.0,0.0,0.0,0.0,0.0
2026-05-22 16:35:24.636873,1779482124.636873,-314556,-155372,164381548,32768,37389,-65446,61,eae9fe00,0.0,0.0,0.0,0.0,0.0,0.0
2026-05-22 16:35:24.638299,1779482124.638299,-331783,-243907,164401998,38810,27255,-72178,61,eae9fe00,0.0,0.0,0.0,0.0,0.0,0.0
2026-05-22 16:35:24.639916,1779482124.639916,-331783,-243907,164401998,38810,27255,-72178,61,eae9fe00,0.0,0.0,0.0,0.0,0.0,0.0
2026-05-22 16:35:24.641220,1779482124.641220,-280346,-143550,164406424,82759,59471,-56219,61,eaeafe00,0.0,0.0,0.0,0.0,0.0,0.0
2026-05-22 16:35:24.642864,1779482124.642864,-280346,-143550,164406424,82759,59471,-56219,61,eaeafe00,0.0,0.0,0.0,0.0,0.0,0.0
2026-05-22 16:35:24.644190,1779482124.644190,-313448,-130090,164364571,61276,78970,-73305,61,eaeafe00,0.0,0.0,0.0,0.0,0.0,0.0
2026-05-22 16:35:24.645791,1779482124.645791,-313448,-130090,164364571,61276,78970,-73305,61,eaeafe00,0.0,0.0,0.0,0.0,0.0,0.0
2026-05-22 16:35:24.647059,1779482124.647059,-313087,-217519,164413714,45807,35174,-64857,61,eaeafe00,0.0,0.0,0.0,0.0,0.0,0.0
2026-05-22 16:35:24.648633,1779482124.648633,-313087,-217519,164413714,45807,35174,-64857,61,eaeafe00,0.0,0.0,0.0,0.0,0.0,0.0
2026-05-22 16:35:24.649898,1779482124.649898,-356702,-193519,164427255,61220,61190,-47929,61,eaeafe00,0.0,0.0,0.0,0.0,0.0,0.0
2026-05-22 16:35:24.651574,1779482124.651574,-356702,-193519,164427255,61220,61190,-47929,61,eaeafe00,0.0,0.0,0.0,0.0,0.0,0.0
2026-05-22 16:35:24.652937,1779482124.652937,-325321,-181671,164372796,44773,39314,-45550,61,eae9fe00,0.0,0.0,0.0,0.0,0.0,0.0
2026-05-22 16:35:24.656475,1779482124.656475,-325321,-181671,164372796,44773,39314,-45550,61,eae9fe00,0.0,0.0,0.0,0.0,0.0,0.0
2026-05-22 16:35:24.657809,1779482124.657809,-280255,-196996,164371779,6839,45965,-37572,61,eaeafe00,0.0,0.0,0.0,0.0,0.0,0.0
2026-05-22 16:35:24.659506,1779482124.659506,-280255,-196996,164371779,6839,45965,-37572,61,eaeafe00,0.0,0.0,0.0,0.0,0.0,0.0
2026-05-22 16:35:24.660870,1779482124.660870,-278557,-231797,164480839,-93547,-43952,-60256,61,eaeafe00,0.0,0.0,0.0,0.0,0.0,0.0
2026-05-22 16:35:24.662491,1779482124.662491,-278557,-231797,164480839,-93547,-43952,-60256,61,eaeafe00,0.0,0.0,0.0,0.0,0.0,0.0
2026-05-22 16:35:24.663770,1779482124.663770,-444034,-171870,164340147,45571,14863,-20837,61,eaeafe00,0.0,0.0,0.0,0.0,0.0,0.0
2026-05-22 16:35:24.665351,1779482124.665351,-444034,-171870,164340147,45571,14863,-20837,61,eaeafe00,0.0,0.0,0.0,0.0,0.0,0.0
2026-05-22 16:35:24.666642,1779482124.666642,-487032,63217,164430172,319289,126221,8568,61,eaeafe00,0.0,0.0,0.0,0.0,0.0,0.0
2026-05-22 16:35:24.668271,1779482124.668271,-487032,63217,164430172,319289,126221,8568,61,eaeafe00,0.0,0.0,0.0,0.0,0.0,0.0
2026-05-22 16:35:24.669576,1779482124.669576,-282582,-154624,164356854,57911,46906,-40463,61,eaeafe00,0.0,0.0,0.0,0.0,0.0,0.0
2026-05-22 16:35:24.671211,1779482124.671211,-282582,-154624,164356854,57911,46906,-40463,61,eaeafe00,0.0,0.0,0.0,0.0,0.0,0.0
2026-05-22 16:35:24.672496,1779482124.672496,-448204,-24441,164393511,93378,66442,-65849,61,eaeafe00,0.0,0.0,0.0,0.0,0.0,0.0
2026-05-22 16:35:24.674176,1779482124.674176,-448204,-24441,164393511,93378,66442,-65849,61,eaeafe00,0.0,0.0,0.0,0.0,0.0,0.0
2026-05-22 16:35:24.675577,1779482124.675577,-250627,-28922,164344658,195498,65131,-56691,61,eaeafe00,0.0,0.0,0.0,0.0,0.0,0.0
2026-05-22 16:35:24.677262,1779482124.677262,-250627,-28922,164344658,195498,65131,-56691,61,eaeafe00,0.0,0.0,0.0,0.0,0.0,0.0
2026-05-22 16:35:24.678617,1779482124.678617,-128560,-288524,164382328,312600,168234,-18135,61,eaeafe00,0.0,0.0,0.0,0.0,0.0,0.0
2026-05-22 16:35:24.680247,1779482124.680247,-128560,-288524,164382328,312600,168234,-18135,61,eaeafe00,0.0,0.0,0.0,0.0,0.0,0.0
2026-05-22 16:35:24.681557,1779482124.681557,-387592,-99666,164364267,-918007,-156899,-133416,61,eaeafe00,0.0,0.0,0.0,0.0,0.0,0.0
2026-05-22 16:35:24.683154,1779482124.683154,-387592,-99666,164364267,-918007,-156899,-133416,61,eaeafe00,0.0,0.0,0.0,0.0,0.0,0.0
2026-05-22 16:35:24.684499,1779482124.684499,-293828,-644060,163987798,82205,26551,-40893,61,eaeafe00,0.0,0.0,0.0,0.0,0.0,0.0
2026-05-22 16:35:24.690486,1779482124.690486,-293828,-644060,163987798,82205,26551,-40893,61,eaeafe00,0.0,0.0,0.0,0.0,0.0,0.0
2026-05-22 16:35:24.694061,1779482124.694061,-335631,-137945,164332134,43978,7615,-78128,61,eaeafe00,0.0,0.0,0.0,0.0,0.0,0.0
2026-05-22 16:35:24.695667,1779482124.695667,-335631,-137945,164332134,43978,7615,-78128,61,eaeafe00,0.0,0.0,0.0,0.0,0.0,0.0
2026-05-22 16:35:24.696953,1779482124.696953,-289679,-218019,164385560,49398,77929,-33141,61,eaeafe00,0.0,0.0,0.0,0.0,0.0,0.0
2026-05-22 16:35:24.698536,1779482124.698536,-289679,-218019,164385560,49398,77929,-33141,61,eaeafe00,0.0,0.0,0.0,0.0,0.0,0.0
2026-05-22 16:35:24.699821,1779482124.699821,-369982,-176185,164416095,36361,16301,-36396,61,eaeafe00,0.0,0.0,0.0,0.0,0.0,0.0
2026-05-22 16:35:24.701625,1779482124.701625,-369982,-176185,164416095,36361,16301,-36396,61,eaeafe00,0.0,0.0,0.0,0.0,0.0,0.0
2026-05-22 16:35:24.702998,1779482124.702998,-252821,-163206,164405244,72882,62487,-13913,61,eaebfe00,0.0,0.0,0.0,0.0,0.0,0.0
2026-05-22 16:35:24.704703,1779482124.704703,-252821,-163206,164405244,72882,62487,-13913,61,eaebfe00,0.0,0.0,0.0,0.0,0.0,0.0
2026-05-22 16:35:24.706112,1779482124.706112,-297302,-123013,164400296,90859,28510,-45778,61,eaeafe00,0.0,0.0,0.0,0.0,0.0,0.0
2026-05-22 16:35:24.707729,1779482124.707729,-297302,-123013,164400296,90859,28510,-45778,61,eaeafe00,0.0,0.0,0.0,0.0,0.0,0.0
2026-05-22 16:35:24.709239,1779482124.709239,-309176,-134502,164406094,44189,63385,-6752,61,eaeafe00,0.0,0.0,0.0,0.0,0.0,0.0
2026-05-22 16:35:24.711040,1779482124.711040,-309176,-134502,164406094,44189,63385,-6752,61,eaeafe00,0.0,0.0,0.0,0.0,0.0,0.0
2026-05-22 16:35:24.712551,1779482124.712551,-286633,-57897,164385094,45837,40591,-36167,61,eaebfe00,0.0,0.0,0.0,0.0,0.0,0.0
2026-05-22 16:35:24.714468,1779482124.714468,-286633,-57897,164385094,45837,40591,-36167,61,eaebfe00,0.0,0.0,0.0,0.0,0.0,0.0
2026-05-22 16:35:24.715951,1779482124.715951,-308366,-141525,164374540,75465,35612,-56173,61,eaebfe00,0.0,0.0,0.0,0.0,0.0,0.0
2026-05-22 16:35:24.717797,1779482124.717797,-308366,-141525,164374540,75465,35612,-56173,61,eaebfe00,0.0,0.0,0.0,0.0,0.0,0.0
2026-05-22 16:35:24.719248,1779482124.719248,-393926,-152939,164406757,68043,22150,-85077,61,eaebfe00,0.0,0.0,0.0,0.0,0.0,0.0
2026-05-22 16:35:24.721077,1779482124.721077,-393926,-152939,164406757,68043,22150,-85077,61,eaebfe00,0.0,0.0,0.0,0.0,0.0,0.0
2026-05-22 16:35:24.722514,1779482124.722514,-302654,-134691,164424833,39546,21380,-48606,61,eaebfe00,0.0,0.0,0.0,0.0,0.0,0.0
2026-05-22 16:35:24.726306,1779482124.726306,-302654,-134691,164424833,39546,21380,-48606,61,eaebfe00,0.0,0.0,0.0,0.0,0.0,0.0
2026-05-22 16:35:24.727820,1779482124.727820,-397310,-166871,164478083,73908,32289,-57712,61,eaebfe00,0.0,0.0,0.0,0.0,0.0,0.0
2026-05-22 16:35:24.729469,1779482124.729469,-397310,-166871,164478083,73908,32289,-57712,61,eaebfe00,0.0,0.0,0.0,0.0,0.0,0.0
2026-05-22 16:35:24.730920,1779482124.730920,-277822,-156717,164412649,25609,43313,-50655,61,eaebfe00,0.0,0.0,0.0,0.0,0.0,0.0
2026-05-22 16:35:24.732796,1779482124.732796,-277822,-156717,164412649,25609,43313,-50655,61,eaebfe00,0.0,0.0,0.0,0.0,0.0,0.0
2026-05-22 16:35:24.734149,1779482124.734149,-282194,-198310,164446884,76411,28255,-44087,61,eaebfe00,0.0,0.0,0.0,0.0,0.0,0.0
2026-05-22 16:35:24.737699,1779482124.737699,-282194,-198310,164446884,76411,28255,-44087,61,eaebfe00,0.0,0.0,0.0,0.0,0.0,0.0
2026-05-22 16:35:24.740376,1779482124.740376,-357377,-122107,164407875,96515,43404,-33928,61,eaebfe00,0.0,0.0,0.0,0.0,0.0,0.0
2026-05-22 16:35:24.742521,1779482124.742521,-357377,-122107,164407875,96515,43404,-33928,61,eaebfe00,0.0,0.0,0.0,0.0,0.0,0.0
2026-05-22 16:35:24.744027,1779482124.744027,-226644,-175714,164458400,2859,43751,-46518,61,eaebfe00,0.0,0.0,0.0,0.0,0.0,0.0
2026-05-22 16:35:24.745918,1779482124.745918,-226644,-175714,164458400,2859,43751,-46518,61,eaebfe00,0.0,0.0,0.0,0.0,0.0,0.0
2026-05-22 16:35:24.747496,1779482124.747496,-360958,-195770,164390736,81535,16076,-47363,61,eaebfe00,0.0,0.0,0.0,0.0,0.0,0.0
2026-05-22 16:35:24.749209,1779482124.749209,-360958,-195770,164390736,81535,16076,-47363,61,eaebfe00,0.0,0.0,0.0,0.0,0.0,0.0
2026-05-22 16:35:24.750591,1779482124.750591,-261610,-126072,164423636,82156,32071,-31916,61,eaecfe00,0.0,0.0,0.0,0.0,0.0,0.0
2026-05-22 16:35:24.752703,1779482124.752703,-261610,-126072,164423636,82156,32071,-31916,61,eaecfe00,0.0,0.0,0.0,0.0,0.0,0.0
2026-05-22 16:35:24.755364,1779482124.755364,-335564,-137174,164426506,42075,49926,-35386,61,eaecfe00,0.0,0.0,0.0,0.0,0.0,0.0
2026-05-22 16:35:24.758642,1779482124.758642,-335564,-137174,164426506,42075,49926,-35386,61,eaecfe00,0.0,0.0,0.0,0.0,0.0,0.0
2026-05-22 16:35:24.761367,1779482124.761367,-282427,-193929,164362544,61166,11475,-6559,61,eaecfe00,0.0,0.0,0.0,0.0,0.0,0.0
2026-05-22 16:35:24.764582,1779482124.764582,-282427,-193929,164362544,61166,11475,-6559,61,eaecfe00,0.0,0.0,0.0,0.0,0.0,0.0
2026-05-22 16:35:24.767179,1779482124.767179,-262952,-114888,164426669,95692,40192,-31203,61,eaecfe00,0.0,0.0,0.0,0.0,0.0,0.0
2026-05-22 16:35:24.773472,1779482124.773472,-262952,-114888,164426669,95692,40192,-31203,61,eaecfe00,0.0,0.0,0.0,0.0,0.0,0.0
2026-05-22 16:35:24.774992,1779482124.774992,-293553,-136484,164391497,59359,50214,-70266,61,eaecfe00,0.0,0.0,0.0,0.0,0.0,0.0
2026-05-22 16:35:24.776770,1779482124.776770,-293553,-136484,164391497,59359,50214,-70266,61,eaecfe00,0.0,0.0,0.0,0.0,0.0,0.0
2026-05-22 16:35:24.778158,1779482124.778158,-275201,-161315,164435659,78763,52578,-48766,61,eaecfe00,0.0,0.0,0.0,0.0,0.0,0.0
2026-05-22 16:35:24.779761,1779482124.779761,-275201,-161315,164435659,78763,52578,-48766,61,eaecfe00,0.0,0.0,0.0,0.0,0.0,0.0
2026-05-22 16:35:24.781053,1779482124.781053,-321052,-84491,164417520,68958,46908,-52423,61,eaecfe00,0.0,0.0,0.0,0.0,0.0,0.0
2026-05-22 16:35:24.782667,1779482124.782667,-321052,-84491,164417520,68958,46908,-52423,61,eaecfe00,0.0,0.0,0.0,0.0,0.0,0.0
2026-05-22 16:35:24.784151,1779482124.784151,-320961,-119753,164392174,54847,33895,-11945,61,eaecfe00,0.0,0.0,0.0,0.0,0.0,0.0
2026-05-22 16:35:24.786288,1779482124.786288,-320961,-119753,164392174,54847,33895,-11945,61,eaecfe00,0.0,0.0,0.0,0.0,0.0,0.0
2026-05-22 16:35:24.787556,1779482124.787556,-415528,-191185,164367252,73961,36433,-72859,61,eaecfe00,0.0,0.0,0.0,0.0,0.0,0.0
2026-05-22 16:35:24.789080,1779482124.789080,-415528,-191185,164367252,73961,36433,-72859,61,eaecfe00,0.0,0.0,0.0,0.0,0.0,0.0
2026-05-22 16:35:24.790414,1779482124.790414,-296596,-227912,164358303,42379,50639,-26000,61,eaedfe00,0.0,0.0,0.0,0.0,0.0,0.0
2026-05-22 16:35:24.792553,1779482124.792553,-296596,-227912,164358303,42379,50639,-26000,61,eaedfe00,0.0,0.0,0.0,0.0,0.0,0.0
2026-05-22 16:35:24.794213,1779482124.794213,-224052,-110416,164421969,43185,54697,-66755,61,eaecfe00,0.0,0.0,0.0,0.0,0.0,0.0
2026-05-22 16:35:24.795833,1779482124.795833,-224052,-110416,164421969,43185,54697,-66755,61,eaecfe00,0.0,0.0,0.0,0.0,0.0,0.0
2026-05-22 16:35:24.797095,1779482124.797095,-305120,-147970,164409558,44149,67997,-31374,61,eaecfe00,0.0,0.0,0.0,0.0,0.0,0.0
2026-05-22 16:35:24.798679,1779482124.798679,-305120,-147970,164409558,44149,67997,-31374,61,eaecfe00,0.0,0.0,0.0,0.0,0.0,0.0
2026-05-22 16:35:24.800013,1779482124.800013,-301545,-231768,164413138,47733,58006,-16426,61,eaecfe00,0.0,0.0,0.0,0.0,0.0,0.0
2026-05-22 16:35:24.801713,1779482124.801713,-301545,-231768,164413138,47733,58006,-16426,61,eaecfe00,0.0,0.0,0.0,0.0,0.0,0.0
2026-05-22 16:35:24.803427,1779482124.803427,-364963,-186606,164362493,54159,47090,-2820,61,eaecfe00,0.0,0.0,0.0,0.0,0.0,0.0
2026-05-22 16:35:24.805285,1779482124.805285,-364963,-186606,164362493,54159,47090,-2820,61,eaecfe00,0.0,0.0,0.0,0.0,0.0,0.0
2026-05-22 16:35:24.806637,1779482124.806637,-359981,-138355,164374573,88217,53895,-22454,61,eaedfe00,0.0,0.0,0.0,0.0,0.0,0.0
2026-05-22 16:35:24.810868,1779482124.810868,-359981,-138355,164374573,88217,53895,-22454,61,eaedfe00,0.0,0.0,0.0,0.0,0.0,0.0
2026-05-22 16:35:24.812126,1779482124.812126,-370556,-75893,164399024,79653,50149,-32103,61,eaecfe00,0.0,0.0,0.0,0.0,0.0,0.0
2026-05-22 16:35:24.813760,1779482124.813760,-370556,-75893,164399024,79653,50149,-32103,61,eaecfe00,0.0,0.0,0.0,0.0,0.0,0.0
2026-05-22 16:35:24.815438,1779482124.815438,-331329,-74174,164414090,106903,49444,-52219,61,eaecfe00,0.0,0.0,0.0,0.0,0.0,0.0
2026-05-22 16:35:24.817600,1779482124.817600,-331329,-74174,164414090,106903,49444,-52219,61,eaecfe00,0.0,0.0,0.0,0.0,0.0,0.0
2026-05-22 16:35:24.819406,1779482124.819406,-319442,-109465,164383424,76380,28958,-46594,61,eaecfe00,0.0,0.0,0.0,0.0,0.0,0.0
2026-05-22 16:35:24.821828,1779482124.821828,-319442,-109465,164383424,76380,28958,-46594,61,eaecfe00,0.0,0.0,0.0,0.0,0.0,0.0
2026-05-22 16:35:24.823612,1779482124.823612,-319886,-136673,164346581,69380,10409,-36768,61,eaecfe00,0.0,0.0,0.0,0.0,0.0,0.0
2026-05-22 16:35:24.825279,1779482124.825279,-319886,-136673,164346581,69380,10409,-36768,61,eaecfe00,0.0,0.0,0.0,0.0,0.0,0.0
2026-05-22 16:35:24.826569,1779482124.826569,-349013,-188517,164366661,60940,17647,-27001,61,eaedfe00,0.0,0.0,0.0,0.0,0.0,0.0
2026-05-22 16:35:24.828173,1779482124.828173,-349013,-188517,164366661,60940,17647,-27001,61,eaedfe00,0.0,0.0,0.0,0.0,0.0,0.0
2026-05-22 16:35:24.829445,1779482124.829445,-301329,-177815,164398720,58366,27884,-33779,61,eaecfe00,0.0,0.0,0.0,0.0,0.0,0.0
2026-05-22 16:35:24.831023,1779482124.831023,-301329,-177815,164398720,58366,27884,-33779,61,eaecfe00,0.0,0.0,0.0,0.0,0.0,0.0
2026-05-22 16:35:24.832297,1779482124.832297,-292778,-169772,164456259,66820,38143,-37123,61,eaecfe00,0.0,0.0,0.0,0.0,0.0,0.0
2026-05-22 16:35:24.833953,1779482124.833953,-292778,-169772,164456259,66820,38143,-37123,61,eaecfe00,0.0,0.0,0.0,0.0,0.0,0.0
2026-05-22 16:35:24.835297,1779482124.835297,-252099,-166640,164434025,78637,35259,-60144,61,eaecfe00,0.0,0.0,0.0,0.0,0.0,0.0
2026-05-22 16:35:24.837218,1779482124.837218,-252099,-166640,164434025,78637,35259,-60144,61,eaecfe00,0.0,0.0,0.0,0.0,0.0,0.0
2026-05-22 16:35:24.838812,1779482124.838812,-259333,-186926,164420760,83520,37172,-38801,61,eaecfe00,0.0,0.0,0.0,0.0,0.0,0.0
2026-05-22 16:35:24.840396,1779482124.840396,-259333,-186926,164420760,83520,37172,-38801,61,eaecfe00,0.0,0.0,0.0,0.0,0.0,0.0
2026-05-22 16:35:24.841683,1779482124.841683,-269971,-210370,164399495,75384,41802,-37811,61,eaecfe00,0.0,0.0,0.0,0.0,0.0,0.0
2026-05-22 16:35:24.845012,1779482124.845012,-269971,-210370,164399495,75384,41802,-37811,61,eaecfe00,0.0,0.0,0.0,0.0,0.0,0.0
2026-05-22 16:35:24.847639,1779482124.847639,-262265,-179693,164421791,61494,54874,-18383,61,eaedfe00,0.0,0.0,0.0,0.0,0.0,0.0
2026-05-22 16:35:24.851234,1779482124.851234,-262265,-179693,164421791,61494,54874,-18383,61,eaedfe00,0.0,0.0,0.0,0.0,0.0,0.0
2026-05-22 16:35:24.853914,1779482124.853914,-284758,-119953,164430782,63817,46080,-24999,61,eaedfe00,0.0,0.0,0.0,0.0,0.0,0.0
2026-05-22 16:35:24.857306,1779482124.857306,-284758,-119953,164430782,63817,46080,-24999,61,eaedfe00,0.0,0.0,0.0,0.0,0.0,0.0
2026-05-22 16:35:24.859955,1779482124.859955,-318847,-45305,164431101,47386,56407,-29593,61,eaedfe00,0.0,0.0,0.0,0.0,0.0,0.0
2026-05-22 16:35:24.863245,1779482124.863245,-318847,-45305,164431101,47386,56407,-29593,61,eaedfe00,0.0,0.0,0.0,0.0,0.0,0.0
2026-05-22 16:35:24.865896,1779482124.865896,-380165,-58652,164404615,49544,52732,-42991,61,eaedfe00,0.0,0.0,0.0,0.0,0.0,0.0
2026-05-22 16:35:24.869272,1779482124.869272,-380165,-58652,164404615,49544,52732,-42991,61,eaedfe00,0.0,0.0,0.0,0.0,0.0,0.0
2026-05-22 16:35:24.871949,1779482124.871949,-420734,-74131,164393785,24850,51503,-41766,61,eaedfe00,0.0,0.0,0.0,0.0,0.0,0.0
2026-05-22 16:35:24.875175,1779482124.875175,-420734,-74131,164393785,24850,51503,-41766,61,eaedfe00,0.0,0.0,0.0,0.0,0.0,0.0
2026-05-22 16:35:24.877838,1779482124.877838,-405903,-112034,164386377,23818,37926,-49569,61,eaedfe00,0.0,0.0,0.0,0.0,0.0,0.0
2026-05-22 16:35:24.881096,1779482124.881096,-405903,-112034,164386377,23818,37926,-49569,61,eaedfe00,0.0,0.0,0.0,0.0,0.0,0.0
2026-05-22 16:35:24.883692,1779482124.883692,-376060,-133873,164351637,28666,22844,-55090,61,eaedfe00,0.0,0.0,0.0,0.0,0.0,0.0
2026-05-22 16:35:24.886997,1779482124.886997,-376060,-133873,164351637,28666,22844,-55090,61,eaedfe00,0.0,0.0,0.0,0.0,0.0,0.0
2026-05-22 16:35:24.889632,1779482124.889632,-290650,-127892,164370222,47100,22621,-72146,61,eaecfe00,0.0,0.0,0.0,0.0,0.0,0.0
2026-05-22 16:35:24.892769,1779482124.892769,-290650,-127892,164370222,47100,22621,-72146,61,eaecfe00,0.0,0.0,0.0,0.0,0.0,0.0
2026-05-22 16:35:24.895276,1779482124.895276,-242976,-127396,164434552,63271,31688,-48342,61,eaecfe00,0.0,0.0,0.0,0.0,0.0,0.0
2026-05-22 16:35:24.898443,1779482124.898443,-242976,-127396,164434552,63271,31688,-48342,61,eaecfe00,0.0,0.0,0.0,0.0,0.0,0.0
2026-05-22 16:35:24.899825,1779482124.899825,-227579,-122450,164494804,54463,40950,-27464,61,eaecfe00,0.0,0.0,0.0,0.0,0.0,0.0
2026-05-22 16:35:24.903386,1779482124.903386,-227579,-122450,164494804,54463,40950,-27464,61,eaecfe00,0.0,0.0,0.0,0.0,0.0,0.0
2026-05-22 16:35:24.904762,1779482124.904762,-224295,-121471,164493787,41536,69012,-1931,61,eaecfe00,0.0,0.0,0.0,0.0,0.0,0.0
2026-05-22 16:35:24.906436,1779482124.906436,-224295,-121471,164493787,41536,69012,-1931,61,eaecfe00,0.0,0.0,0.0,0.0,0.0,0.0
2026-05-22 16:35:24.907703,1779482124.907703,-290890,-139683,164446044,48307,73351,-43634,61,eaecfe00,0.0,0.0,0.0,0.0,0.0,0.0
2026-05-22 16:35:24.909353,1779482124.909353,-290890,-139683,164446044,48307,73351,-43634,61,eaecfe00,0.0,0.0,0.0,0.0,0.0,0.0
2026-05-22 16:35:24.910693,1779482124.910693,-341927,-169667,164423228,71470,50489,-49355,61,eaecfe00,0.0,0.0,0.0,0.0,0.0,0.0
2026-05-22 16:35:24.912295,1779482124.912295,-341927,-169667,164423228,71470,50489,-49355,61,eaecfe00,0.0,0.0,0.0,0.0,0.0,0.0
2026-05-22 16:35:24.913584,1779482124.913584,-395230,-169070,164411244,98427,57553,-85849,61,eaedfe00,0.0,0.0,0.0,0.0,0.0,0.0
2026-05-22 16:35:24.915173,1779482124.915173,-395230,-169070,164411244,98427,57553,-85849,61,eaedfe00,0.0,0.0,0.0,0.0,0.0,0.0
2026-05-22 16:35:24.916436,1779482124.916436,-426490,-140231,164451761,80221,36256,-90335,61,eaedfe00,0.0,0.0,0.0,0.0,0.0,0.0
2026-05-22 16:35:24.917939,1779482124.917939,-426490,-140231,164451761,80221,36256,-90335,61,eaedfe00,0.0,0.0,0.0,0.0,0.0,0.0
2026-05-22 16:35:24.919141,1779482124.919141,-418184,-63718,164420824,70566,31952,-99884,61,eaedfe00,0.0,0.0,0.0,0.0,0.0,0.0
2026-05-22 16:35:24.920685,1779482124.920685,-418184,-63718,164420824,70566,31952,-99884,61,eaedfe00,0.0,0.0,0.0,0.0,0.0,0.0
2026-05-22 16:35:24.921892,1779482124.921892,-382011,-42384,164412916,48311,21065,-82532,61,eaedfe00,0.0,0.0,0.0,0.0,0.0,0.0
2026-05-22 16:35:24.923419,1779482124.923419,-382011,-42384,164412916,48311,21065,-82532,61,eaedfe00,0.0,0.0,0.0,0.0,0.0,0.0
2026-05-22 16:35:24.924624,1779482124.924624,-329814,-77502,164408571,43911,34258,-69677,61,eaedfe00,0.0,0.0,0.0,0.0,0.0,0.0
2026-05-22 16:35:24.926180,1779482124.926180,-329814,-77502,164408571,43911,34258,-69677,61,eaedfe00,0.0,0.0,0.0,0.0,0.0,0.0
2026-05-22 16:35:24.927389,1779482124.927389,-294781,-156378,164407237,32204,29783,-45177,61,eaedfe00,0.0,0.0,0.0,0.0,0.0,0.0
2026-05-22 16:35:24.928933,1779482124.928933,-294781,-156378,164407237,32204,29783,-45177,61,eaedfe00,0.0,0.0,0.0,0.0,0.0,0.0
2026-05-22 16:35:24.930158,1779482124.930158,-292053,-218223,164388083,35482,21593,-34682,61,eaecfe00,0.0,0.0,0.0,0.0,0.0,0.0
2026-05-22 16:35:24.936287,1779482124.936287,-292053,-218223,164388083,35482,21593,-34682,61,eaecfe00,0.0,0.0,0.0,0.0,0.0,0.0
2026-05-22 16:35:24.939745,1779482124.939745,-292214,-238269,164381789,58565,45893,-24210,61,eaecfe00,0.0,0.0,0.0,0.0,0.0,0.0
2026-05-22 16:35:24.941513,1779482124.941513,-292214,-238269,164381789,58565,45893,-24210,61,eaecfe00,0.0,0.0,0.0,0.0,0.0,0.0
2026-05-22 16:35:24.942766,1779482124.942766,-325083,-217421,164416543,75553,56802,-30383,61,eaedfe00,0.0,0.0,0.0,0.0,0.0,0.0
2026-05-22 16:35:24.944419,1779482124.944419,-325083,-217421,164416543,75553,56802,-30383,61,eaedfe00,0.0,0.0,0.0,0.0,0.0,0.0
2026-05-22 16:35:24.945651,1779482124.945651,-306093,-194822,164437261,84090,63707,-41930,61,eaedfe00,0.0,0.0,0.0,0.0,0.0,0.0
2026-05-22 16:35:24.947152,1779482124.947152,-306093,-194822,164437261,84090,63707,-41930,61,eaedfe00,0.0,0.0,0.0,0.0,0.0,0.0
2026-05-22 16:35:24.948434,1779482124.948434,-314736,-172459,164386286,72495,48785,-46042,61,eaecfe00,0.0,0.0,0.0,0.0,0.0,0.0
2026-05-22 16:35:24.951123,1779482124.951123,-314736,-172459,164386286,72495,48785,-46042,61,eaecfe00,0.0,0.0,0.0,0.0,0.0,0.0
2026-05-22 16:35:24.952976,1779482124.952976,-302831,-204742,164355625,51903,39559,-65568,61,eaecfe00,0.0,0.0,0.0,0.0,0.0,0.0
2026-05-22 16:35:24.960953,1779482124.960953,-302831,-204742,164355625,51903,39559,-65568,61,eaecfe00,0.0,0.0,0.0,0.0,0.0,0.0
2026-05-22 16:35:24.962536,1779482124.962536,-291901,-177178,164347108,61636,39133,-68280,61,eaecfe00,0.0,0.0,0.0,0.0,0.0,0.0
2026-05-22 16:35:24.964151,1779482124.964151,-291901,-177178,164347108,61636,39133,-68280,61,eaecfe00,0.0,0.0,0.0,0.0,0.0,0.0
2026-05-22 16:35:24.965713,1779482124.965713,-292408,-175056,164372146,44181,47946,-66468,61,eaecfe00,0.0,0.0,0.0,0.0,0.0,0.0
2026-05-22 16:35:24.969012,1779482124.969012,-292408,-175056,164372146,44181,47946,-66468,61,eaecfe00,0.0,0.0,0.0,0.0,0.0,0.0
2026-05-22 16:35:24.971817,1779482124.971817,-290099,-115491,164393522,57504,51079,-63968,61,eaedfe00,0.0,0.0,0.0,0.0,0.0,0.0
2026-05-22 16:35:24.975180,1779482124.975180,-290099,-115491,164393522,57504,51079,-63968,61,eaedfe00,0.0,0.0,0.0,0.0,0.0,0.0
2026-05-22 16:35:24.977905,1779482124.977905,-333988,-99620,164385021,39398,36990,-55736,61,eaecfe00,0.0,0.0,0.0,0.0,0.0,0.0
2026-05-22 16:35:24.981209,1779482124.981209,-333988,-99620,164385021,39398,36990,-55736,61,eaecfe00,0.0,0.0,0.0,0.0,0.0,0.0
2026-05-22 16:35:24.983798,1779482124.983798,-392201,-123176,164411564,43374,49732,-56764,61,eaecfe00,0.0,0.0,0.0,0.0,0.0,0.0
2026-05-22 16:35:24.990803,1779482124.990803,-392201,-123176,164411564,43374,49732,-56764,61,eaecfe00,0.0,0.0,0.0,0.0,0.0,0.0
2026-05-22 16:35:24.992255,1779482124.992255,-430102,-158281,164394177,52495,33206,-54625,61,eaedfe00,0.0,0.0,0.0,0.0,0.0,0.0
2026-05-22 16:35:24.994004,1779482124.994004,-430102,-158281,164394177,52495,33206,-54625,61,eaedfe00,0.0,0.0,0.0,0.0,0.0,0.0
2026-05-22 16:35:24.995565,1779482124.995565,-438605,-173353,164414217,60363,34295,-45781,61,eaedfe00,0.0,0.0,0.0,0.0,0.0,0.0
2026-05-22 16:35:24.997238,1779482124.997238,-438605,-173353,164414217,60363,34295,-45781,61,eaedfe00,0.0,0.0,0.0,0.0,0.0,0.0
2026-05-22 16:35:24.998526,1779482124.998526,-377847,-192425,164395590,71237,13137,-52825,61,eaecfe00,0.0,0.0,0.0,0.0,0.0,0.0
2026-05-22 16:35:25.000049,1779482125.000049,-377847,-192425,164395590,71237,13137,-52825,61,eaecfe00,0.0,0.0,0.0,0.0,0.0,0.0
2026-05-22 16:35:25.001301,1779482125.001301,-264381,-193733,164356446,59445,9704,-49871,61,eaedfe00,0.0,0.0,0.0,0.0,0.0,0.0
2026-05-22 16:35:25.002827,1779482125.002827,-264381,-193733,164356446,59445,9704,-49871,61,eaedfe00,0.0,0.0,0.0,0.0,0.0,0.0
2026-05-22 16:35:25.004080,1779482125.004080,-201066,-158524,164361937,85446,23054,-35698,61,eaecfe00,0.0,0.0,0.0,0.0,0.0,0.0
2026-05-22 16:35:25.005746,1779482125.005746,-201066,-158524,164361937,85446,23054,-35698,61,eaecfe00,0.0,0.0,0.0,0.0,0.0,0.0
2026-05-22 16:35:25.007039,1779482125.007039,-191272,-166604,164363372,94772,26194,-31000,61,eaecfe00,0.0,0.0,0.0,0.0,0.0,0.0
2026-05-22 16:35:25.008645,1779482125.008645,-191272,-166604,164363372,94772,26194,-31000,61,eaecfe00,0.0,0.0,0.0,0.0,0.0,0.0
2026-05-22 16:35:25.009910,1779482125.009910,-222447,-200386,164345699,68545,28703,-34298,61,eaecfe00,0.0,0.0,0.0,0.0,0.0,0.0
2026-05-22 16:35:25.011514,1779482125.011514,-222447,-200386,164345699,68545,28703,-34298,61,eaecfe00,0.0,0.0,0.0,0.0,0.0,0.0
2026-05-22 16:35:25.012994,1779482125.012994,-267258,-203968,164353187,35786,21085,-21791,61,eaecfe00,0.0,0.0,0.0,0.0,0.0,0.0
2026-05-22 16:35:25.014617,1779482125.014617,-267258,-203968,164353187,35786,21085,-21791,61,eaecfe00,0.0,0.0,0.0,0.0,0.0,0.0
2026-05-22 16:35:25.015931,1779482125.015931,-311563,-213022,164375679,19744,26597,-26061,61,eaecfe00,0.0,0.0,0.0,0.0,0.0,0.0
2026-05-22 16:35:25.017496,1779482125.017496,-311563,-213022,164375679,19744,26597,-26061,61,eaecfe00,0.0,0.0,0.0,0.0,0.0,0.0
2026-05-22 16:35:25.018737,1779482125.018737,-327617,-173255,164415137,37356,40170,-13014,61,eaedfe00,0.0,0.0,0.0,0.0,0.0,0.0
2026-05-22 16:35:25.022105,1779482125.022105,-327617,-173255,164415137,37356,40170,-13014,61,eaedfe00,0.0,0.0,0.0,0.0,0.0,0.0
2026-05-22 16:35:25.023391,1779482125.023391,-370094,-180600,164442628,51235,41423,-47576,61,eaecfe00,0.0,0.0,0.0,0.0,0.0,0.0
2026-05-22 16:35:25.024971,1779482125.024971,-370094,-180600,164442628,51235,41423,-47576,61,eaecfe00,0.0,0.0,0.0,0.0,0.0,0.0
2026-05-22 16:35:25.026309,1779482125.026309,-352138,-155726,164396776,67253,47478,-45408,61,eaecfe00,0.0,0.0,0.0,0.0,0.0,0.0
2026-05-22 16:35:25.027946,1779482125.027946,-352138,-155726,164396776,67253,47478,-45408,61,eaecfe00,0.0,0.0,0.0,0.0,0.0,0.0
2026-05-22 16:35:25.029325,1779482125.029325,-373411,-140240,164371636,62065,61975,-47017,61,eaedfe00,0.0,0.0,0.0,0.0,0.0,0.0
2026-05-22 16:35:25.030973,1779482125.030973,-373411,-140240,164371636,62065,61975,-47017,61,eaedfe00,0.0,0.0,0.0,0.0,0.0,0.0
2026-05-22 16:35:25.032237,1779482125.032237,-292291,-118807,164341214,68273,57159,-42240,61,eaedfe00,0.0,0.0,0.0,0.0,0.0,0.0
2026-05-22 16:35:25.033798,1779482125.033798,-292291,-118807,164341214,68273,57159,-42240,61,eaedfe00,0.0,0.0,0.0,0.0,0.0,0.0
2026-05-22 16:35:25.034967,1779482125.034967,-278090,-107344,164344665,89923,31445,-37465,61,eaecfe00,0.0,0.0,0.0,0.0,0.0,0.0
2026-05-22 16:35:25.036531,1779482125.036531,-278090,-107344,164344665,89923,31445,-37465,61,eaecfe00,0.0,0.0,0.0,0.0,0.0,0.0
2026-05-22 16:35:25.037804,1779482125.037804,-214813,-139740,164398838,77422,18618,-40457,61,eaecfe00,0.0,0.0,0.0,0.0,0.0,0.0
2026-05-22 16:35:25.039340,1779482125.039340,-214813,-139740,164398838,77422,18618,-40457,61,eaecfe00,0.0,0.0,0.0,0.0,0.0,0.0
2026-05-22 16:35:25.040580,1779482125.040580,-200568,-117244,164397804,65084,6946,-51537,61,eaecfe00,0.0,0.0,0.0,0.0,0.0,0.0
2026-05-22 16:35:25.042099,1779482125.042099,-200568,-117244,164397804,65084,6946,-51537,61,eaecfe00,0.0,0.0,0.0,0.0,0.0,0.0
2026-05-22 16:35:25.044479,1779482125.044479,-154537,-113059,164408584,47543,736,-66709,61,eaecfe00,0.0,0.0,0.0,0.0,0.0,0.0
2026-05-22 16:35:25.047407,1779482125.047407,-154537,-113059,164408584,47543,736,-66709,61,eaecfe00,0.0,0.0,0.0,0.0,0.0,0.0
2026-05-22 16:35:25.049673,1779482125.049673,-181810,-111262,164370685,48182,1460,-72080,61,eaecfe00,0.0,0.0,0.0,0.0,0.0,0.0
2026-05-22 16:35:25.052762,1779482125.052762,-181810,-111262,164370685,48182,1460,-72080,61,eaecfe00,0.0,0.0,0.0,0.0,0.0,0.0
2026-05-22 16:35:25.055843,1779482125.055843,-220981,-133510,164346068,29923,23744,-48227,61,eaecfe00,0.0,0.0,0.0,0.0,0.0,0.0
2026-05-22 16:35:25.061369,1779482125.061369,-220981,-133510,164346068,29923,23744,-48227,61,eaecfe00,0.0,0.0,0.0,0.0,0.0,0.0
2026-05-22 16:35:25.062591,1779482125.062591,-292371,-156332,164333884,34691,16061,-32012,61,eaecfe00,0.0,0.0,0.0,0.0,0.0,0.0
2026-05-22 16:35:25.064060,1779482125.064060,-292371,-156332,164333884,34691,16061,-32012,61,eaecfe00,0.0,0.0,0.0,0.0,0.0,0.0
2026-05-22 16:35:25.065191,1779482125.065191,-326154,-147589,164329822,48980,24794,-39706,61,eaecfe00,0.0,0.0,0.0,0.0,0.0,0.0
2026-05-22 16:35:25.067569,1779482125.067569,-326154,-147589,164329822,48980,24794,-39706,61,eaecfe00,0.0,0.0,0.0,0.0,0.0,0.0
2026-05-22 16:35:25.068890,1779482125.068890,-338035,-167938,164382159,47223,32583,-55811,61,eaecfe00,0.0,0.0,0.0,0.0,0.0,0.0
2026-05-22 16:35:25.070446,1779482125.070446,-338035,-167938,164382159,47223,32583,-55811,61,eaecfe00,0.0,0.0,0.0,0.0,0.0,0.0
2026-05-22 16:35:25.071606,1779482125.071606,-327878,-126298,164418479,61078,54934,-72686,61,eaecfe00,0.0,0.0,0.0,0.0,0.0,0.0
2026-05-22 16:35:25.072995,1779482125.072995,-327878,-126298,164418479,61078,54934,-72686,61,eaecfe00,0.0,0.0,0.0,0.0,0.0,0.0
2026-05-22 16:35:25.074219,1779482125.074219,-314572,-112483,164466743,28510,79060,-88701,61,eaecfe00,0.0,0.0,0.0,0.0,0.0,0.0
2026-05-22 16:35:25.075725,1779482125.075725,-314572,-112483,164466743,28510,79060,-88701,61,eaecfe00,0.0,0.0,0.0,0.0,0.0,0.0
2026-05-22 16:35:25.076877,1779482125.076877,-306706,-104543,164460210,33635,57235,-80623,61,eaecfe00,0.0,0.0,0.0,0.0,0.0,0.0
2026-05-22 16:35:25.078248,1779482125.078248,-306706,-104543,164460210,33635,57235,-80623,61,eaecfe00,0.0,0.0,0.0,0.0,0.0,0.0
2026-05-22 16:35:25.079341,1779482125.079341,-305275,-106277,164450437,35568,72856,-74576,61,eaecfe00,0.0,0.0,0.0,0.0,0.0,0.0
2026-05-22 16:35:25.080715,1779482125.080715,-305275,-106277,164450437,35568,72856,-74576,61,eaecfe00,0.0,0.0,0.0,0.0,0.0,0.0
2026-05-22 16:35:25.081815,1779482125.081815,-298490,-109357,164383565,51878,50014,-47582,61,eaecfe00,0.0,0.0,0.0,0.0,0.0,0.0
2026-05-22 16:35:25.083179,1779482125.083179,-298490,-109357,164383565,51878,50014,-47582,61,eaecfe00,0.0,0.0,0.0,0.0,0.0,0.0
2026-05-22 16:35:25.084306,1779482125.084306,-320160,-113269,164388177,60414,51184,-21983,61,eaecfe00,0.0,0.0,0.0,0.0,0.0,0.0
2026-05-22 16:35:25.085697,1779482125.085697,-320160,-113269,164388177,60414,51184,-21983,61,eaecfe00,0.0,0.0,0.0,0.0,0.0,0.0
2026-05-22 16:35:25.086808,1779482125.086808,-365303,-118037,164391909,63027,63164,-19633,61,eaedfe00,0.0,0.0,0.0,0.0,0.0,0.0
2026-05-22 16:35:25.089737,1779482125.089737,-365303,-118037,164391909,63027,63164,-19633,61,eaedfe00,0.0,0.0,0.0,0.0,0.0,0.0
2026-05-22 16:35:25.090836,1779482125.090836,-374189,-141188,164437218,37972,59098,-32295,61,eaecfe00,0.0,0.0,0.0,0.0,0.0,0.0
2026-05-22 16:35:25.092178,1779482125.092178,-374189,-141188,164437218,37972,59098,-32295,61,eaecfe00,0.0,0.0,0.0,0.0,0.0,0.0
2026-05-22 16:35:25.093317,1779482125.093317,-289120,-117471,164395015,25984,71407,-44082,61,eaecfe00,0.0,0.0,0.0,0.0,0.0,0.0
2026-05-22 16:35:25.094734,1779482125.094734,-289120,-117471,164395015,25984,71407,-44082,61,eaecfe00,0.0,0.0,0.0,0.0,0.0,0.0
2026-05-22 16:35:25.095880,1779482125.095880,-242398,-155512,164366914,37692,54043,-32853,61,eaecfe00,0.0,0.0,0.0,0.0,0.0,0.0
2026-05-22 16:35:25.097288,1779482125.097288,-242398,-155512,164366914,37692,54043,-32853,61,eaecfe00,0.0,0.0,0.0,0.0,0.0,0.0
2026-05-22 16:35:25.098458,1779482125.098458,-221650,-163237,164376053,45201,68826,-13925,61,eaedfe00,0.0,0.0,0.0,0.0,0.0,0.0
2026-05-22 16:35:25.099902,1779482125.099902,-221650,-163237,164376053,45201,68826,-13925,61,eaedfe00,0.0,0.0,0.0,0.0,0.0,0.0
2026-05-22 16:35:25.101213,1779482125.101213,-256595,-157532,164389763,69901,78475,-22951,61,eaecfe00,0.0,0.0,0.0,0.0,0.0,0.0
2026-05-22 16:35:25.103061,1779482125.103061,-256595,-157532,164389763,69901,78475,-22951,61,eaecfe00,0.0,0.0,0.0,0.0,0.0,0.0
2026-05-22 16:35:25.104589,1779482125.104589,-289673,-141222,164374197,68580,75384,-29071,61,eaecfe00,0.0,0.0,0.0,0.0,0.0,0.0
2026-05-22 16:35:25.106483,1779482125.106483,-289673,-141222,164374197,68580,75384,-29071,61,eaecfe00,0.0,0.0,0.0,0.0,0.0,0.0
2026-05-22 16:35:25.107596,1779482125.107596,-355610,-111213,164373097,72128,66026,-23518,61,eaecfe00,0.0,0.0,0.0,0.0,0.0,0.0
2026-05-22 16:35:25.108971,1779482125.108971,-355610,-111213,164373097,72128,66026,-23518,61,eaecfe00,0.0,0.0,0.0,0.0,0.0,0.0
2026-05-22 16:35:25.110181,1779482125.110181,-407630,-171849,164381517,57333,42718,-20348,61,eaecfe00,0.0,0.0,0.0,0.0,0.0,0.0
2026-05-22 16:35:25.111636,1779482125.111636,-407630,-171849,164381517,57333,42718,-20348,61,eaecfe00,0.0,0.0,0.0,0.0,0.0,0.0
2026-05-22 16:35:25.112791,1779482125.112791,-356095,-173440,164394009,54229,17145,-24008,61,eaecfe00,0.0,0.0,0.0,0.0,0.0,0.0
2026-05-22 16:35:25.114612,1779482125.114612,-356095,-173440,164394009,54229,17145,-24008,61,eaecfe00,0.0,0.0,0.0,0.0,0.0,0.0
2026-05-22 16:35:25.115790,1779482125.115790,-316107,-175892,164379777,27857,20214,-25067,61,eaecfe00,0.0,0.0,0.0,0.0,0.0,0.0
2026-05-22 16:35:25.118835,1779482125.118835,-316107,-175892,164379777,27857,20214,-25067,61,eaecfe00,0.0,0.0,0.0,0.0,0.0,0.0
2026-05-22 16:35:25.120557,1779482125.120557,-282432,-193271,164344776,58449,8660,-26947,61,eaecfe00,0.0,0.0,0.0,0.0,0.0,0.0
2026-05-22 16:35:25.121963,1779482125.121963,-282432,-193271,164344776,58449,8660,-26947,61,eaecfe00,0.0,0.0,0.0,0.0,0.0,0.0
2026-05-22 16:35:25.123064,1779482125.123064,-250974,-186002,164361145,69428,37338,-38865,61,eaecfe00,0.0,0.0,0.0,0.0,0.0,0.0
2026-05-22 16:35:25.124426,1779482125.124426,-250974,-186002,164361145,69428,37338,-38865,61,eaecfe00,0.0,0.0,0.0,0.0,0.0,0.0
2026-05-22 16:35:25.125518,1779482125.125518,-228975,-180126,164363042,72308,40335,-50065,61,eaecfe00,0.0,0.0,0.0,0.0,0.0,0.0
2026-05-22 16:35:25.126902,1779482125.126902,-228975,-180126,164363042,72308,40335,-50065,61,eaecfe00,0.0,0.0,0.0,0.0,0.0,0.0
2026-05-22 16:35:25.128003,1779482125.128003,-227966,-118762,164380674,72554,52034,-46361,61,eaecfe00,0.0,0.0,0.0,0.0,0.0,0.0
2026-05-22 16:35:25.129373,1779482125.129373,-227966,-118762,164380674,72554,52034,-46361,61,eaecfe00,0.0,0.0,0.0,0.0,0.0,0.0
2026-05-22 16:35:25.130426,1779482125.130426,-266115,-129534,164387110,70114,35625,-39236,61,eaecfe00,0.0,0.0,0.0,0.0,0.0,0.0
2026-05-22 16:35:25.131727,1779482125.131727,-266115,-129534,164387110,70114,35625,-39236,61,eaecfe00,0.0,0.0,0.0,0.0,0.0,0.0
2026-05-22 16:35:25.132783,1779482125.132783,-296656,-98531,164393586,71451,30563,-55352,61,eaecfe00,0.0,0.0,0.0,0.0,0.0,0.0
2026-05-22 16:35:25.134110,1779482125.134110,-296656,-98531,164393586,71451,30563,-55352,61,eaecfe00,0.0,0.0,0.0,0.0,0.0,0.0
2026-05-22 16:35:25.135224,1779482125.135224,-333287,-107604,164391009,67011,45633,-82165,61,eaecfe00,0.0,0.0,0.0,0.0,0.0,0.0
2026-05-22 16:35:25.137106,1779482125.137106,-333287,-107604,164391009,67011,45633,-82165,61,eaecfe00,0.0,0.0,0.0,0.0,0.0,0.0
2026-05-22 16:35:25.138445,1779482125.138445,-320517,-129904,164363116,56972,52855,-69943,61,eaecfe00,0.0,0.0,0.0,0.0,0.0,0.0
2026-05-22 16:35:25.139754,1779482125.139754,-320517,-129904,164363116,56972,52855,-69943,61,eaecfe00,0.0,0.0,0.0,0.0,0.0,0.0
2026-05-22 16:35:25.140772,1779482125.140772,-304099,-132532,164367030,62481,61751,-71738,61,eaecfe00,0.0,0.0,0.0,0.0,0.0,0.0
2026-05-22 16:35:25.142047,1779482125.142047,-304099,-132532,164367030,62481,61751,-71738,61,eaecfe00,0.0,0.0,0.0,0.0,0.0,0.0
2026-05-22 16:35:25.143094,1779482125.143094,-275718,-150902,164390877,65188,43968,-55648,61,eaecfe00,0.0,0.0,0.0,0.0,0.0,0.0
2026-05-22 16:35:25.145836,1779482125.145836,-275718,-150902,164390877,65188,43968,-55648,61,eaecfe00,0.0,0.0,0.0,0.0,0.0,0.0
2026-05-22 16:35:25.146866,1779482125.146866,-238877,-114815,164392003,55571,46884,-57170,61,eaedfe00,0.0,0.0,0.0,0.0,0.0,0.0
2026-05-22 16:35:25.148126,1779482125.148126,-238877,-114815,164392003,55571,46884,-57170,61,eaedfe00,0.0,0.0,0.0,0.0,0.0,0.0
2026-05-22 16:35:25.149109,1779482125.149109,-244569,-137204,164423780,36833,41616,-41600,61,eaedfe00,0.0,0.0,0.0,0.0,0.0,0.0
2026-05-22 16:35:25.150370,1779482125.150370,-244569,-137204,164423780,36833,41616,-41600,61,eaedfe00,0.0,0.0,0.0,0.0,0.0,0.0
2026-05-22 16:35:25.151405,1779482125.151405,-261684,-182649,164399005,31955,56178,-21967,61,eaedfe00,0.0,0.0,0.0,0.0,0.0,0.0
2026-05-22 16:35:25.152721,1779482125.152721,-261684,-182649,164399005,31955,56178,-21967,61,eaedfe00,0.0,0.0,0.0,0.0,0.0,0.0
2026-05-22 16:35:25.153782,1779482125.153782,-301272,-176960,164436016,28701,43880,-11057,61,eaecfe00,0.0,0.0,0.0,0.0,0.0,0.0
2026-05-22 16:35:25.155091,1779482125.155091,-301272,-176960,164436016,28701,43880,-11057,61,eaecfe00,0.0,0.0,0.0,0.0,0.0,0.0
2026-05-22 16:35:25.156113,1779482125.156113,-341865,-172349,164400695,46832,54762,-13585,61,eaecfe00,0.0,0.0,0.0,0.0,0.0,0.0
2026-05-22 16:35:25.157425,1779482125.157425,-341865,-172349,164400695,46832,54762,-13585,61,eaecfe00,0.0,0.0,0.0,0.0,0.0,0.0
2026-05-22 16:35:25.158428,1779482125.158428,-335049,-167108,164398166,44578,34505,-13866,61,eaecfe00,0.0,0.0,0.0,0.0,0.0,0.0
2026-05-22 16:35:25.159704,1779482125.159704,-335049,-167108,164398166,44578,34505,-13866,61,eaecfe00,0.0,0.0,0.0,0.0,0.0,0.0
2026-05-22 16:35:25.160738,1779482125.160738,-299938,-198278,164365384,56367,57591,-24123,61,eaecfe00,0.0,0.0,0.0,0.0,0.0,0.0
2026-05-22 16:35:25.162043,1779482125.162043,-299938,-198278,164365384,56367,57591,-24123,61,eaecfe00,0.0,0.0,0.0,0.0,0.0,0.0
2026-05-22 16:35:25.163073,1779482125.163073,-295777,-174985,164362402,54166,44462,-43977,61,eaecfe00,0.0,0.0,0.0,0.0,0.0,0.0
2026-05-22 16:35:25.164369,1779482125.164369,-295777,-174985,164362402,54166,44462,-43977,61,eaecfe00,0.0,0.0,0.0,0.0,0.0,0.0
2026-05-22 16:35:25.165402,1779482125.165402,-279089,-143909,164346353,58905,63786,-42034,61,eaecfe00,0.0,0.0,0.0,0.0,0.0,0.0
2026-05-22 16:35:25.166669,1779482125.166669,-279089,-143909,164346353,58905,63786,-42034,61,eaecfe00,0.0,0.0,0.0,0.0,0.0,0.0
2026-05-22 16:35:25.167790,1779482125.167790,-279438,-127793,164378926,51683,42529,-60515,61,eaedfe00,0.0,0.0,0.0,0.0,0.0,0.0
2026-05-22 16:35:25.170642,1779482125.170642,-279438,-127793,164378926,51683,42529,-60515,61,eaedfe00,0.0,0.0,0.0,0.0,0.0,0.0
2026-05-22 16:35:25.171769,1779482125.171769,-281243,-103996,164387240,79232,54194,-41885,61,eaedfe00,0.0,0.0,0.0,0.0,0.0,0.0
2026-05-22 16:35:25.173022,1779482125.173022,-281243,-103996,164387240,79232,54194,-41885,61,eaedfe00,0.0,0.0,0.0,0.0,0.0,0.0
2026-05-22 16:35:25.174005,1779482125.174005,-326352,-95679,164450569,92125,42274,-59339,61,eaedfe00,0.0,0.0,0.0,0.0,0.0,0.0
2026-05-22 16:35:25.175238,1779482125.175238,-326352,-95679,164450569,92125,42274,-59339,61,eaedfe00,0.0,0.0,0.0,0.0,0.0,0.0
2026-05-22 16:35:25.176229,1779482125.176229,-359728,-115517,164462219,104666,45883,-57542,61,eaecfe00,0.0,0.0,0.0,0.0,0.0,0.0
2026-05-22 16:35:25.177670,1779482125.177670,-359728,-115517,164462219,104666,45883,-57542,61,eaecfe00,0.0,0.0,0.0,0.0,0.0,0.0
2026-05-22 16:35:25.178704,1779482125.178704,-347102,-113571,164465411,78906,49477,-53237,61,eaecfe00,0.0,0.0,0.0,0.0,0.0,0.0
2026-05-22 16:35:25.179928,1779482125.179928,-347102,-113571,164465411,78906,49477,-53237,61,eaecfe00,0.0,0.0,0.0,0.0,0.0,0.0
2026-05-22 16:35:25.180915,1779482125.180915,-344648,-189749,164452238,49044,45566,-54612,61,eaecfe00,0.0,0.0,0.0,0.0,0.0,0.0
2026-05-22 16:35:25.182140,1779482125.182140,-344648,-189749,164452238,49044,45566,-54612,61,eaecfe00,0.0,0.0,0.0,0.0,0.0,0.0
2026-05-22 16:35:25.183131,1779482125.183131,-319771,-217119,164433284,1922,47033,-37984,61,eaecfe00,0.0,0.0,0.0,0.0,0.0,0.0
2026-05-22 16:35:25.184361,1779482125.184361,-319771,-217119,164433284,1922,47033,-37984,61,eaecfe00,0.0,0.0,0.0,0.0,0.0,0.0
2026-05-22 16:35:25.185291,1779482125.185291,-248774,-278475,164428791,17336,51423,-51841,61,eaecfe00,0.0,0.0,0.0,0.0,0.0,0.0
2026-05-22 16:35:25.186636,1779482125.186636,-248774,-278475,164428791,17336,51423,-51841,61,eaecfe00,0.0,0.0,0.0,0.0,0.0,0.0
2026-05-22 16:35:25.187574,1779482125.187574,-177367,-236675,164459284,6533,39808,-44527,61,eaecfe00,0.0,0.0,0.0,0.0,0.0,0.0
2026-05-22 16:35:25.188822,1779482125.188822,-177367,-236675,164459284,6533,39808,-44527,61,eaecfe00,0.0,0.0,0.0,0.0,0.0,0.0
2026-05-22 16:35:25.189804,1779482125.189804,-167756,-182434,164421539,21991,49776,-50463,61,eaecfe00,0.0,0.0,0.0,0.0,0.0,0.0
2026-05-22 16:35:25.191897,1779482125.191897,-167756,-182434,164421539,21991,49776,-50463,61,eaecfe00,0.0,0.0,0.0,0.0,0.0,0.0
2026-05-22 16:35:25.194059,1779482125.194059,-191990,-128703,164442792,26301,25770,-41622,61,eaecfe00,0.0,0.0,0.0,0.0,0.0,0.0
2026-05-22 16:35:25.199890,1779482125.199890,-191990,-128703,164442792,26301,25770,-41622,61,eaecfe00,0.0,0.0,0.0,0.0,0.0,0.0
2026-05-22 16:35:25.202226,1779482125.202226,-254512,-129000,164412833,54007,29379,-33118,61,eaecfe00,0.0,0.0,0.0,0.0,0.0,0.0
2026-05-22 16:35:25.205715,1779482125.205715,-254512,-129000,164412833,54007,29379,-33118,61,eaecfe00,0.0,0.0,0.0,0.0,0.0,0.0
2026-05-22 16:35:25.207712,1779482125.207712,-292117,-109663,164455118,67462,10051,-36035,61,eaecfe00,0.0,0.0,0.0,0.0,0.0,0.0
2026-05-22 16:35:25.209829,1779482125.209829,-292117,-109663,164455118,67462,10051,-36035,61,eaecfe00,0.0,0.0,0.0,0.0,0.0,0.0
2026-05-22 16:35:25.210981,1779482125.210981,-345176,-118878,164448121,75484,25534,-41455,61,eaedfe00,0.0,0.0,0.0,0.0,0.0,0.0
2026-05-22 16:35:25.212397,1779482125.212397,-345176,-118878,164448121,75484,25534,-41455,61,eaedfe00,0.0,0.0,0.0,0.0,0.0,0.0
2026-05-22 16:35:25.213509,1779482125.213509,-380495,-91377,164458370,45107,34229,-50381,61,eaedfe00,0.0,0.0,0.0,0.0,0.0,0.0
2026-05-22 16:35:25.214887,1779482125.214887,-380495,-91377,164458370,45107,34229,-50381,61,eaedfe00,0.0,0.0,0.0,0.0,0.0,0.0
2026-05-22 16:35:25.216052,1779482125.216052,-354034,-134056,164420105,49267,34372,-49717,61,eaedfe00,0.0,0.0,0.0,0.0,0.0,0.0
2026-05-22 16:35:25.217568,1779482125.217568,-354034,-134056,164420105,49267,34372,-49717,61,eaedfe00,0.0,0.0,0.0,0.0,0.0,0.0
2026-05-22 16:35:25.218722,1779482125.218722,-280067,-120813,164388704,35682,40667,-37841,61,eaedfe00,0.0,0.0,0.0,0.0,0.0,0.0
2026-05-22 16:35:25.220158,1779482125.220158,-280067,-120813,164388704,35682,40667,-37841,61,eaedfe00,0.0,0.0,0.0,0.0,0.0,0.0
2026-05-22 16:35:25.221150,1779482125.221150,-200217,-191399,164365626,48698,37623,-41546,61,eaedfe00,0.0,0.0,0.0,0.0,0.0,0.0
2026-05-22 16:35:25.222285,1779482125.222285,-200217,-191399,164365626,48698,37623,-41546,61,eaedfe00,0.0,0.0,0.0,0.0,0.0,0.0
2026-05-22 16:35:25.223169,1779482125.223169,-207458,-213402,164359615,58402,45601,-51789,61,eaedfe00,0.0,0.0,0.0,0.0,0.0,0.0
2026-05-22 16:35:25.224289,1779482125.224289,-207458,-213402,164359615,58402,45601,-51789,61,eaedfe00,0.0,0.0,0.0,0.0,0.0,0.0
2026-05-22 16:35:25.225219,1779482125.225219,-249832,-208969,164392384,54661,35320,-41709,61,eaecfe00,0.0,0.0,0.0,0.0,0.0,0.0
2026-05-22 16:35:25.226325,1779482125.226325,-249832,-208969,164392384,54661,35320,-41709,61,eaecfe00,0.0,0.0,0.0,0.0,0.0,0.0
2026-05-22 16:35:25.227147,1779482125.227147,-266982,-144470,164409616,37719,32458,-57638,61,eaecfe00,0.0,0.0,0.0,0.0,0.0,0.0
2026-05-22 16:35:25.229382,1779482125.229382,-266982,-144470,164409616,37719,32458,-57638,61,eaecfe00,0.0,0.0,0.0,0.0,0.0,0.0
2026-05-22 16:35:25.230213,1779482125.230213,-260115,-117481,164431156,17956,33790,-62734,61,eaecfe00,0.0,0.0,0.0,0.0,0.0,0.0
2026-05-22 16:35:25.231317,1779482125.231317,-260115,-117481,164431156,17956,33790,-62734,61,eaecfe00,0.0,0.0,0.0,0.0,0.0,0.0
2026-05-22 16:35:25.232152,1779482125.232152,-275001,-144302,164389132,12358,43658,-69342,61,eaecfe00,0.0,0.0,0.0,0.0,0.0,0.0
2026-05-22 16:35:25.233142,1779482125.233142,-275001,-144302,164389132,12358,43658,-69342,61,eaecfe00,0.0,0.0,0.0,0.0,0.0,0.0
2026-05-22 16:35:25.233943,1779482125.233943,-298206,-175970,164383187,36251,42659,-42609,61,eaecfe00,0.0,0.0,0.0,0.0,0.0,0.0
2026-05-22 16:35:25.235074,1779482125.235074,-298206,-175970,164383187,36251,42659,-42609,61,eaecfe00,0.0,0.0,0.0,0.0,0.0,0.0
2026-05-22 16:35:25.236129,1779482125.236129,-298288,-170287,164336391,41548,32215,-34922,61,eaecfe00,0.0,0.0,0.0,0.0,0.0,0.0
2026-05-22 16:35:25.237181,1779482125.237181,-298288,-170287,164336391,41548,32215,-34922,61,eaecfe00,0.0,0.0,0.0,0.0,0.0,0.0
2026-05-22 16:35:25.238143,1779482125.238143,-256200,-197066,164378673,61922,24005,-43635,61,eaecfe00,0.0,0.0,0.0,0.0,0.0,0.0
2026-05-22 16:35:25.239361,1779482125.239361,-256200,-197066,164378673,61922,24005,-43635,61,eaecfe00,0.0,0.0,0.0,0.0,0.0,0.0
2026-05-22 16:35:25.240171,1779482125.240171,-260934,-173797,164400518,51889,40022,-76572,61,eaecfe00,0.0,0.0,0.0,0.0,0.0,0.0
2026-05-22 16:35:25.241144,1779482125.241144,-260934,-173797,164400518,51889,40022,-76572,61,eaecfe00,0.0,0.0,0.0,0.0,0.0,0.0
2026-05-22 16:35:25.241922,1779482125.241922,-283537,-164801,164433194,45840,30484,-79523,61,eaecfe00,0.0,0.0,0.0,0.0,0.0,0.0
2026-05-22 16:35:25.242870,1779482125.242870,-283537,-164801,164433194,45840,30484,-79523,61,eaecfe00,0.0,0.0,0.0,0.0,0.0,0.0
2026-05-22 16:35:25.243620,1779482125.243620,-371286,-171959,164413115,59158,39896,-65540,61,eaecfe00,0.0,0.0,0.0,0.0,0.0,0.0
2026-05-22 16:35:25.244545,1779482125.244545,-371286,-171959,164413115,59158,39896,-65540,61,eaecfe00,0.0,0.0,0.0,0.0,0.0,0.0
2026-05-22 16:35:25.245321,1779482125.245321,-364071,-160183,164383815,35909,33652,-39935,61,eaedfe00,0.0,0.0,0.0,0.0,0.0,0.0
2026-05-22 16:35:25.246292,1779482125.246292,-364071,-160183,164383815,35909,33652,-39935,61,eaedfe00,0.0,0.0,0.0,0.0,0.0,0.0
2026-05-22 16:35:25.247119,1779482125.247119,-350650,-153075,164423054,13971,43358,-25020,61,eaecfe00,0.0,0.0,0.0,0.0,0.0,0.0
2026-05-22 16:35:25.251517,1779482125.251517,-350650,-153075,164423054,13971,43358,-25020,61,eaecfe00,0.0,0.0,0.0,0.0,0.0,0.0
2026-05-22 16:35:25.252644,1779482125.252644,-321312,-148602,164464960,38726,27593,-26036,61,eaecfe00,0.0,0.0,0.0,0.0,0.0,0.0
2026-05-22 16:35:25.255778,1779482125.255778,-321312,-148602,164464960,38726,27593,-26036,61,eaecfe00,0.0,0.0,0.0,0.0,0.0,0.0
2026-05-22 16:35:25.256777,1779482125.256777,-320227,-131315,164458228,45621,31595,-34010,61,eaecfe00,0.0,0.0,0.0,0.0,0.0,0.0
2026-05-22 16:35:25.257869,1779482125.257869,-320227,-131315,164458228,45621,31595,-34010,61,eaecfe00,0.0,0.0,0.0,0.0,0.0,0.0
2026-05-22 16:35:25.258684,1779482125.258684,-330000,-162353,164457220,48444,37889,-61468,61,eaecfe00,0.0,0.0,0.0,0.0,0.0,0.0
2026-05-22 16:35:25.259811,1779482125.259811,-330000,-162353,164457220,48444,37889,-61468,61,eaecfe00,0.0,0.0,0.0,0.0,0.0,0.0
2026-05-22 16:35:25.260560,1779482125.260560,-306345,-157099,164409800,41772,40094,-79040,61,eaedfe00,0.0,0.0,0.0,0.0,0.0,0.0
2026-05-22 16:35:25.261476,1779482125.261476,-306345,-157099,164409800,41772,40094,-79040,61,eaedfe00,0.0,0.0,0.0,0.0,0.0,0.0
2026-05-22 16:35:25.262210,1779482125.262210,-276051,-199893,164417570,24580,38965,-72776,61,eaecfe00,0.0,0.0,0.0,0.0,0.0,0.0
2026-05-22 16:35:25.264432,1779482125.264432,-276051,-199893,164417570,24580,38965,-72776,61,eaecfe00,0.0,0.0,0.0,0.0,0.0,0.0
2026-05-22 16:35:25.266517,1779482125.266517,-285990,-197025,164402109,50145,46455,-59730,61,eaedfe00,0.0,0.0,0.0,0.0,0.0,0.0
2026-05-22 16:35:25.269223,1779482125.269223,-285990,-197025,164402109,50145,46455,-59730,61,eaedfe00,0.0,0.0,0.0,0.0,0.0,0.0
2026-05-22 16:35:25.271386,1779482125.271386,-329018,-153429,164415432,56647,54964,-46293,61,eaecfe00,0.0,0.0,0.0,0.0,0.0,0.0
2026-05-22 16:35:25.274029,1779482125.274029,-329018,-153429,164415432,56647,54964,-46293,61,eaecfe00,0.0,0.0,0.0,0.0,0.0,0.0
2026-05-22 16:35:25.275788,1779482125.275788,-313316,-124772,164369597,72932,68508,-54229,61,eaecfe00,0.0,0.0,0.0,0.0,0.0,0.0
2026-05-22 16:35:25.277932,1779482125.277932,-313316,-124772,164369597,72932,68508,-54229,61,eaecfe00,0.0,0.0,0.0,0.0,0.0,0.0
2026-05-22 16:35:25.279764,1779482125.279764,-336795,-92676,164405824,67472,62721,-49152,61,eaecfe00,0.0,0.0,0.0,0.0,0.0,0.0
2026-05-22 16:35:25.281929,1779482125.281929,-336795,-92676,164405824,67472,62721,-49152,61,eaecfe00,0.0,0.0,0.0,0.0,0.0,0.0
2026-05-22 16:35:25.283220,1779482125.283220,-339667,-123803,164415293,57683,52015,-38740,61,eaedfe00,0.0,0.0,0.0,0.0,0.0,0.0
2026-05-22 16:35:25.286074,1779482125.286074,-339667,-123803,164415293,57683,52015,-38740,61,eaedfe00,0.0,0.0,0.0,0.0,0.0,0.0
2026-05-22 16:35:25.287169,1779482125.287169,-381041,-153598,164407194,46855,28162,-35619,61,eaedfe00,0.0,0.0,0.0,0.0,0.0,0.0
2026-05-22 16:35:25.288509,1779482125.288509,-381041,-153598,164407194,46855,28162,-35619,61,eaedfe00,0.0,0.0,0.0,0.0,0.0,0.0
2026-05-22 16:35:25.289514,1779482125.289514,-349204,-171430,164364191,41085,40031,-44801,61,eaedfe00,0.0,0.0,0.0,0.0,0.0,0.0
2026-05-22 16:35:25.290739,1779482125.290739,-349204,-171430,164364191,41085,40031,-44801,61,eaedfe00,0.0,0.0,0.0,0.0,0.0,0.0
2026-05-22 16:35:25.291739,1779482125.291739,-307606,-178683,164370967,30209,52084,-38486,61,eaecfe00,0.0,0.0,0.0,0.0,0.0,0.0
2026-05-22 16:35:25.292825,1779482125.292825,-307606,-178683,164370967,30209,52084,-38486,61,eaecfe00,0.0,0.0,0.0,0.0,0.0,0.0
