sys_datetime,unix_timestamp,raw_accel_x_lsb,raw_accel_y_lsb,raw_accel_z_lsb,raw_gyro_x_lsb,raw_gyro_y_lsb,raw_gyro_z_lsb,raw_accel_x_ms2,raw_accel_y_ms2,raw_accel_z_ms2,raw_gyro_x_degs,raw_gyro_y_degs,raw_gyro_z_degs,imu_type,imu_status_hex,veh_lat_acc_ms2,veh_long_acc_ms2,veh_vert_acc_ms2,veh_pitch_rate_degs,veh_roll_rate_degs,veh_yaw_rate_degs
2026-05-26 15:21:52.060665,1779823312.060665,,,,,,,,,,,,,,,0.0,0.0,0.0,0.0,0.0,0.0
2026-05-26 15:21:52.062871,1779823312.062871,,,,,,,,,,,,,,,0.0,0.0,0.0,0.0,0.0,0.0
2026-05-26 15:21:52.064799,1779823312.064799,,,,,,,,,,,,,,,0.0,0.0,0.0,0.0,0.0,0.0
2026-05-26 15:21:52.066615,1779823312.066615,,,,,,,,,,,,,,,0.0,0.0,0.0,0.0,0.0,0.0
2026-05-26 15:21:52.068347,1779823312.068347,,,,,,,,,,,,,,,0.0,0.0,0.0,0.0,0.0,0.0
2026-05-26 15:21:52.070889,1779823312.070889,,,,,,,,,,,,,,,0.0,0.0,0.0,0.0,0.0,0.0
2026-05-26 15:21:52.072669,1779823312.072669,,,,,,,,,,,,,,,0.0,0.0,0.0,0.0,0.0,0.0
2026-05-26 15:21:52.074493,1779823312.074493,,,,,,,,,,,,,,,0.0,0.0,0.0,0.0,0.0,0.0
2026-05-26 15:21:52.076399,1779823312.076399,,,,,,,,,,,,,,,0.0,0.0,0.0,0.0,0.0,0.0
2026-05-26 15:21:52.078178,1779823312.078178,,,,,,,,,,,,,,,0.0,0.0,0.0,0.0,0.0,0.0
2026-05-26 15:21:52.080473,1779823312.080473,,,,,,,,,,,,,,,0.0,0.0,0.0,0.0,0.0,0.0
2026-05-26 15:21:52.082263,1779823312.082263,,,,,,,,,,,,,,,0.0,0.0,0.0,0.0,0.0,0.0
2026-05-26 15:21:52.084226,1779823312.084226,,,,,,,,,,,,,,,0.0,0.0,0.0,0.0,0.0,0.0
2026-05-26 15:21:52.086130,1779823312.086130,,,,,,,,,,,,,,,0.0,0.0,0.0,0.0,0.0,0.0
2026-05-26 15:21:52.087983,1779823312.087983,,,,,,,,,,,,,,,0.0,0.0,0.0,0.0,0.0,0.0
2026-05-26 15:21:52.094478,1779823312.094478,,,,,,,,,,,,,,,0.0,0.0,0.0,0.0,0.0,0.0
2026-05-26 15:21:52.096466,1779823312.096466,,,,,,,,,,,,,,,0.0,0.0,0.0,0.0,0.0,0.0
2026-05-26 15:21:52.098689,1779823312.098689,,,,,,,,,,,,,,,0.0,0.0,0.0,0.0,0.0,0.0
2026-05-26 15:21:52.101576,1779823312.101576,,,,,,,,,,,,,,,0.0,0.0,0.0,0.0,0.0,0.0
2026-05-26 15:21:52.104567,1779823312.104567,,,,,,,,,,,,,,,0.0,0.0,0.0,0.0,0.0,0.0
2026-05-26 15:21:52.108199,1779823312.108199,,,,,,,,,,,,,,,0.0,0.0,0.0,0.0,0.0,0.0
2026-05-26 15:21:52.110222,1779823312.110222,,,,,,,,,,,,,,,0.0,0.0,0.0,0.0,0.0,0.0
2026-05-26 15:21:52.112256,1779823312.112256,,,,,,,,,,,,,,,0.0,0.0,0.0,0.0,0.0,0.0
2026-05-26 15:21:52.114266,1779823312.114266,,,,,,,,,,,,,,,0.0,0.0,0.0,0.0,0.0,0.0
2026-05-26 15:21:52.116491,1779823312.116491,,,,,,,,,,,,,,,0.0,0.0,0.0,0.0,0.0,0.0
2026-05-26 15:21:52.120566,1779823312.120566,,,,,,,,,,,,,,,0.0,0.0,0.0,0.0,0.0,0.0
2026-05-26 15:21:52.123792,1779823312.123792,,,,,,,,,,,,,,,0.0,0.0,0.0,0.0,0.0,0.0
2026-05-26 15:21:52.125693,1779823312.125693,,,,,,,,,,,,,,,0.0,0.0,0.0,0.0,0.0,0.0
2026-05-26 15:21:52.127371,1779823312.127371,,,,,,,,,,,,,,,0.0,0.0,0.0,0.0,0.0,0.0
2026-05-26 15:21:52.128938,1779823312.128938,,,,,,,,,,,,,,,0.0,0.0,0.0,0.0,0.0,0.0
2026-05-26 15:21:52.130711,1779823312.130711,,,,,,,,,,,,,,,0.0,0.0,0.0,0.0,0.0,0.0
2026-05-26 15:21:52.132593,1779823312.132593,,,,,,,,,,,,,,,0.0,0.0,0.0,0.0,0.0,0.0
2026-05-26 15:21:52.135153,1779823312.135153,,,,,,,,,,,,,,,0.0,0.0,0.0,0.0,0.0,0.0
2026-05-26 15:21:52.137391,1779823312.137391,,,,,,,,,,,,,,,0.0,0.0,0.0,0.0,0.0,0.0
2026-05-26 15:21:52.139934,1779823312.139934,,,,,,,,,,,,,,,0.0,0.0,0.0,0.0,0.0,0.0
2026-05-26 15:21:52.142438,1779823312.142438,,,,,,,,,,,,,,,0.0,0.0,0.0,0.0,0.0,0.0
2026-05-26 15:21:52.144163,1779823312.144163,,,,,,,,,,,,,,,0.0,0.0,0.0,0.0,0.0,0.0
2026-05-26 15:21:52.145745,1779823312.145745,,,,,,,,,,,,,,,0.0,0.0,0.0,0.0,0.0,0.0
2026-05-26 15:21:52.147331,1779823312.147331,,,,,,,,,,,,,,,0.0,0.0,0.0,0.0,0.0,0.0
2026-05-26 15:21:52.149106,1779823312.149106,,,,,,,,,,,,,,,0.0,0.0,0.0,0.0,0.0,0.0
2026-05-26 15:21:52.151295,1779823312.151295,,,,,,,,,,,,,,,0.0,0.0,0.0,0.0,0.0,0.0
2026-05-26 15:21:52.153319,1779823312.153319,,,,,,,,,,,,,,,0.0,0.0,0.0,0.0,0.0,0.0
2026-05-26 15:21:52.155118,1779823312.155118,,,,,,,,,,,,,,,0.0,0.0,0.0,0.0,0.0,0.0
2026-05-26 15:21:52.157383,1779823312.157383,,,,,,,,,,,,,,,0.0,0.0,0.0,0.0,0.0,0.0
2026-05-26 15:21:52.159195,1779823312.159195,,,,,,,,,,,,,,,0.0,0.0,0.0,0.0,0.0,0.0
2026-05-26 15:21:52.160872,1779823312.160872,,,,,,,,,,,,,,,0.0,0.0,0.0,0.0,0.0,0.0
2026-05-26 15:21:52.163046,1779823312.163046,,,,,,,,,,,,,,,0.0,0.0,0.0,0.0,0.0,0.0
2026-05-26 15:21:52.165456,1779823312.165456,,,,,,,,,,,,,,,0.0,0.0,0.0,0.0,0.0,0.0
2026-05-26 15:21:52.167818,1779823312.167818,,,,,,,,,,,,,,,0.0,0.0,0.0,0.0,0.0,0.0
2026-05-26 15:21:52.169788,1779823312.169788,,,,,,,,,,,,,,,0.0,0.0,0.0,0.0,0.0,0.0
2026-05-26 15:21:52.171839,1779823312.171839,,,,,,,,,,,,,,,0.0,0.0,0.0,0.0,0.0,0.0
2026-05-26 15:21:52.174278,1779823312.174278,,,,,,,,,,,,,,,0.0,0.0,0.0,0.0,0.0,0.0
2026-05-26 15:21:52.175960,1779823312.175960,,,,,,,,,,,,,,,0.0,0.0,0.0,0.0,0.0,0.0
2026-05-26 15:21:52.180634,1779823312.180634,,,,,,,,,,,,,,,0.0,0.0,0.0,0.0,0.0,0.0
2026-05-26 15:21:52.190510,1779823312.190510,,,,,,,,,,,,,,,0.0,0.0,0.0,0.0,0.0,0.0
2026-05-26 15:21:52.200283,1779823312.200283,,,,,,,,,,,,,,,0.0,0.0,0.0,0.0,0.0,0.0
2026-05-26 15:21:52.210497,1779823312.210497,,,,,,,,,,,,,,,0.0,0.0,0.0,0.0,0.0,0.0
2026-05-26 15:21:52.220496,1779823312.220496,,,,,,,,,,,,,,,0.0,0.0,0.0,0.0,0.0,0.0
2026-05-26 15:21:52.230096,1779823312.230096,,,,,,,,,,,,,,,0.0,0.0,0.0,0.0,0.0,0.0
2026-05-26 15:21:52.240059,1779823312.240059,,,,,,,,,,,,,,,0.0,0.0,0.0,0.0,0.0,0.0
2026-05-26 15:21:52.250150,1779823312.250150,,,,,,,,,,,,,,,0.0,0.0,0.0,0.0,0.0,0.0
2026-05-26 15:21:52.260014,1779823312.260014,,,,,,,,,,,,,,,0.0,0.0,0.0,0.0,0.0,0.0
2026-05-26 15:21:52.270412,1779823312.270412,,,,,,,,,,,,,,,0.0,0.0,0.0,0.0,0.0,0.0
2026-05-26 15:21:52.279884,1779823312.279884,,,,,,,,,,,,,,,0.0,0.0,0.0,0.0,0.0,0.0
2026-05-26 15:21:52.290301,1779823312.290301,,,,,,,,,,,,,,,0.0,0.0,0.0,0.0,0.0,0.0
2026-05-26 15:21:52.300790,1779823312.300790,,,,,,,,,,,,,,,0.0,0.0,0.0,0.0,0.0,0.0
2026-05-26 15:21:52.310590,1779823312.310590,,,,,,,,,,,,,,,0.0,0.0,0.0,0.0,0.0,0.0
2026-05-26 15:21:52.320571,1779823312.320571,,,,,,,,,,,,,,,0.0,0.0,0.0,0.0,0.0,0.0
2026-05-26 15:21:52.330157,1779823312.330157,,,,,,,,,,,,,,,0.0,0.0,0.0,0.0,0.0,0.0
2026-05-26 15:21:52.354753,1779823312.354753,,,,,,,,,,,,,,,0.0,0.0,0.0,0.0,0.0,0.0
2026-05-26 15:21:52.361241,1779823312.361241,,,,,,,,,,,,,,,0.0,0.0,0.0,0.0,0.0,0.0
2026-05-26 15:21:52.375587,1779823312.375587,,,,,,,,,,,,,,,0.0,0.0,0.0,0.0,0.0,0.0
2026-05-26 15:21:52.462622,1779823312.462622,,,,,,,,,,,,,,,0.0,0.0,0.0,0.0,0.0,0.0
2026-05-26 15:21:52.472710,1779823312.472710,,,,,,,,,,,,,,,0.0,0.0,0.0,0.0,0.0,0.0
2026-05-26 15:21:52.476591,1779823312.476591,,,,,,,,,,,,,,,0.0,0.0,0.0,0.0,0.0,0.0
2026-05-26 15:21:52.478400,1779823312.478400,,,,,,,,,,,,,,,0.0,0.0,0.0,0.0,0.0,0.0
2026-05-26 15:21:52.481002,1779823312.481002,,,,,,,,,,,,,,,0.0,0.0,0.0,0.0,0.0,0.0
2026-05-26 15:21:52.482692,1779823312.482692,,,,,,,,,,,,,,,0.0,0.0,0.0,0.0,0.0,0.0
2026-05-26 15:21:52.486035,1779823312.486035,,,,,,,,,,,,,,,0.0,0.0,0.0,0.0,0.0,0.0
2026-05-26 15:21:52.488374,1779823312.488374,,,,,,,,,,,,,,,0.0,0.0,0.0,0.0,0.0,0.0
2026-05-26 15:21:52.491680,1779823312.491680,,,,,,,,,,,,,,,0.0,0.0,0.0,0.0,0.0,0.0
2026-05-26 15:21:52.493315,1779823312.493315,,,,,,,,,,,,,,,0.0,0.0,0.0,0.0,0.0,0.0
2026-05-26 15:21:52.495432,1779823312.495432,,,,,,,,,,,,,,,0.0,0.0,0.0,0.0,0.0,0.0
2026-05-26 15:21:52.496871,1779823312.496871,,,,,,,,,,,,,,,0.0,0.0,0.0,0.0,0.0,0.0
2026-05-26 15:21:52.499381,1779823312.499381,,,,,,,,,,,,,,,0.0,0.0,0.0,0.0,0.0,0.0
2026-05-26 15:21:52.501550,1779823312.501550,,,,,,,,,,,,,,,0.0,0.0,0.0,0.0,0.0,0.0
2026-05-26 15:21:52.509899,1779823312.509899,,,,,,,,,,,,,,,0.0,0.0,0.0,0.0,0.0,0.0
2026-05-26 15:21:52.520658,1779823312.520658,,,,,,,,,,,,,,,0.0,0.0,0.0,0.0,0.0,0.0
2026-05-26 15:21:52.529954,1779823312.529954,,,,,,,,,,,,,,,0.0,0.0,0.0,0.0,0.0,0.0
2026-05-26 15:21:52.540766,1779823312.540766,,,,,,,,,,,,,,,0.0,0.0,0.0,0.0,0.0,0.0
2026-05-26 15:21:52.549993,1779823312.549993,,,,,,,,,,,,,,,0.0,0.0,0.0,0.0,0.0,0.0
2026-05-26 15:21:52.560862,1779823312.560862,,,,,,,,,,,,,,,0.0,0.0,0.0,0.0,0.0,0.0
2026-05-26 15:21:52.570591,1779823312.570591,,,,,,,,,,,,,,,0.0,0.0,0.0,0.0,0.0,0.0
2026-05-26 15:21:52.579854,1779823312.579854,,,,,,,,,,,,,,,0.0,0.0,0.0,0.0,0.0,0.0
2026-05-26 15:21:52.591310,1779823312.591310,,,,,,,,,,,,,,,0.0,0.0,0.0,0.0,0.0,0.0
2026-05-26 15:21:52.599870,1779823312.599870,,,,,,,,,,,,,,,0.0,0.0,0.0,0.0,0.0,0.0
2026-05-26 15:21:52.610349,1779823312.610349,,,,,,,,,,,,,,,0.0,0.0,0.0,0.0,0.0,0.0
2026-05-26 15:21:52.620421,1779823312.620421,,,,,,,,,,,,,,,0.0,0.0,0.0,0.0,0.0,0.0
2026-05-26 15:21:52.630128,1779823312.630128,,,,,,,,,,,,,,,0.0,0.0,0.0,0.0,0.0,0.0
2026-05-26 15:21:52.640470,1779823312.640470,,,,,,,,,,,,,,,0.0,0.0,0.0,0.0,0.0,0.0
2026-05-26 15:21:52.650618,1779823312.650618,,,,,,,,,,,,,,,0.0,0.0,0.0,0.0,0.0,0.0
2026-05-26 15:21:52.661008,1779823312.661008,,,,,,,,,,,,,,,0.0,0.0,0.0,0.0,0.0,0.0
2026-05-26 15:21:52.670607,1779823312.670607,,,,,,,,,,,,,,,0.0,0.0,0.0,0.0,0.0,0.0
2026-05-26 15:21:52.680097,1779823312.680097,,,,,,,,,,,,,,,0.0,0.0,0.0,0.0,0.0,0.0
2026-05-26 15:21:52.690303,1779823312.690303,,,,,,,,,,,,,,,0.0,0.0,0.0,0.0,0.0,0.0
2026-05-26 15:21:52.700048,1779823312.700048,,,,,,,,,,,,,,,0.0,0.0,0.0,0.0,0.0,0.0
2026-05-26 15:21:52.710662,1779823312.710662,,,,,,,,,,,,,,,0.0,0.0,0.0,0.0,0.0,0.0
2026-05-26 15:21:52.720738,1779823312.720738,,,,,,,,,,,,,,,0.0,0.0,0.0,0.0,0.0,0.0
2026-05-26 15:21:52.730066,1779823312.730066,,,,,,,,,,,,,,,0.0,0.0,0.0,0.0,0.0,0.0
2026-05-26 15:21:52.741008,1779823312.741008,,,,,,,,,,,,,,,0.0,0.0,0.0,0.0,0.0,0.0
2026-05-26 15:21:52.750227,1779823312.750227,,,,,,,,,,,,,,,0.0,0.0,0.0,0.0,0.0,0.0
2026-05-26 15:21:52.759973,1779823312.759973,,,,,,,,,,,,,,,0.0,0.0,0.0,0.0,0.0,0.0
2026-05-26 15:21:52.770750,1779823312.770750,,,,,,,,,,,,,,,0.0,0.0,0.0,0.0,0.0,0.0
2026-05-26 15:21:52.780027,1779823312.780027,,,,,,,,,,,,,,,0.0,0.0,0.0,0.0,0.0,0.0
2026-05-26 15:21:52.790507,1779823312.790507,,,,,,,,,,,,,,,0.0,0.0,0.0,0.0,0.0,0.0
2026-05-26 15:21:52.800014,1779823312.800014,,,,,,,,,,,,,,,0.0,0.0,0.0,0.0,0.0,0.0
2026-05-26 15:21:52.810156,1779823312.810156,,,,,,,,,,,,,,,0.0,0.0,0.0,0.0,0.0,0.0
2026-05-26 15:21:52.820353,1779823312.820353,,,,,,,,,,,,,,,0.0,0.0,0.0,0.0,0.0,0.0
2026-05-26 15:21:52.830022,1779823312.830022,,,,,,,,,,,,,,,0.0,0.0,0.0,0.0,0.0,0.0
2026-05-26 15:21:52.842437,1779823312.842437,,,,,,,,,,,,,,,0.0,0.0,0.0,0.0,0.0,0.0
2026-05-26 15:21:52.850188,1779823312.850188,,,,,,,,,,,,,,,0.0,0.0,0.0,0.0,0.0,0.0
2026-05-26 15:21:52.860597,1779823312.860597,,,,,,,,,,,,,,,0.0,0.0,0.0,0.0,0.0,0.0
2026-05-26 15:21:52.870552,1779823312.870552,,,,,,,,,,,,,,,0.0,0.0,0.0,0.0,0.0,0.0
2026-05-26 15:21:52.879944,1779823312.879944,,,,,,,,,,,,,,,0.0,0.0,0.0,0.0,0.0,0.0
2026-05-26 15:21:52.890877,1779823312.890877,,,,,,,,,,,,,,,0.0,0.0,0.0,0.0,0.0,0.0
2026-05-26 15:21:52.900346,1779823312.900346,,,,,,,,,,,,,,,0.0,0.0,0.0,0.0,0.0,0.0
2026-05-26 15:21:52.910353,1779823312.910353,,,,,,,,,,,,,,,0.0,0.0,0.0,0.0,0.0,0.0
2026-05-26 15:21:52.920477,1779823312.920477,,,,,,,,,,,,,,,0.0,0.0,0.0,0.0,0.0,0.0
2026-05-26 15:21:52.929832,1779823312.929832,,,,,,,,,,,,,,,0.0,0.0,0.0,0.0,0.0,0.0
2026-05-26 15:21:52.940962,1779823312.940962,,,,,,,,,,,,,,,0.0,0.0,0.0,0.0,0.0,0.0
2026-05-26 15:21:52.949543,1779823312.949543,,,,,,,,,,,,,,,0.0,0.0,0.0,0.0,0.0,0.0
2026-05-26 15:21:52.960014,1779823312.960014,,,,,,,,,,,,,,,0.0,0.0,0.0,0.0,0.0,0.0
2026-05-26 15:21:52.971399,1779823312.971399,,,,,,,,,,,,,,,0.0,0.0,0.0,0.0,0.0,0.0
2026-05-26 15:21:52.980008,1779823312.980008,,,,,,,,,,,,,,,0.0,0.0,0.0,0.0,0.0,0.0
2026-05-26 15:21:52.993300,1779823312.993300,,,,,,,,,,,,,,,0.0,0.0,0.0,0.0,0.0,0.0
2026-05-26 15:21:53.003566,1779823313.003566,,,,,,,,,,,,,,,0.0,0.0,0.0,0.0,0.0,0.0
2026-05-26 15:21:53.012122,1779823313.012122,,,,,,,,,,,,,,,0.0,0.0,0.0,0.0,0.0,0.0
2026-05-26 15:21:53.022590,1779823313.022590,,,,,,,,,,,,,,,0.0,0.0,0.0,0.0,0.0,0.0
2026-05-26 15:21:53.031399,1779823313.031399,,,,,,,,,,,,,,,0.0,0.0,0.0,0.0,0.0,0.0
2026-05-26 15:21:53.042764,1779823313.042764,,,,,,,,,,,,,,,0.0,0.0,0.0,0.0,0.0,0.0
2026-05-26 15:21:53.053356,1779823313.053356,,,,,,,,,,,,,,,0.0,0.0,0.0,0.0,0.0,0.0
2026-05-26 15:21:53.060553,1779823313.060553,,,,,,,,,,,,,,,0.0,0.0,0.0,0.0,0.0,0.0
2026-05-26 15:21:53.070578,1779823313.070578,,,,,,,,,,,,,,,0.0,0.0,0.0,0.0,0.0,0.0
2026-05-26 15:21:53.080311,1779823313.080311,,,,,,,,,,,,,,,0.0,0.0,0.0,0.0,0.0,0.0
2026-05-26 15:21:53.092599,1779823313.092599,,,,,,,,,,,,,,,0.0,0.0,0.0,0.0,0.0,0.0
2026-05-26 15:21:53.101448,1779823313.101448,,,,,,,,,,,,,,,0.0,0.0,0.0,0.0,0.0,0.0
2026-05-26 15:21:53.110390,1779823313.110390,,,,,,,,,,,,,,,0.0,0.0,0.0,0.0,0.0,0.0
2026-05-26 15:21:53.120504,1779823313.120504,,,,,,,,,,,,,,,0.0,0.0,0.0,0.0,0.0,0.0
2026-05-26 15:21:53.130089,1779823313.130089,,,,,,,,,,,,,,,0.0,0.0,0.0,0.0,0.0,0.0
2026-05-26 15:21:53.140747,1779823313.140747,,,,,,,,,,,,,,,0.0,0.0,0.0,0.0,0.0,0.0
2026-05-26 15:21:53.150166,1779823313.150166,,,,,,,,,,,,,,,0.0,0.0,0.0,0.0,0.0,0.0
2026-05-26 15:21:53.160723,1779823313.160723,,,,,,,,,,,,,,,0.0,0.0,0.0,0.0,0.0,0.0
2026-05-26 15:21:53.170399,1779823313.170399,,,,,,,,,,,,,,,0.0,0.0,0.0,0.0,0.0,0.0
2026-05-26 15:21:53.179816,1779823313.179816,,,,,,,,,,,,,,,0.0,0.0,0.0,0.0,0.0,0.0
2026-05-26 15:21:53.191214,1779823313.191214,,,,,,,,,,,,,,,0.0,0.0,0.0,0.0,0.0,0.0
2026-05-26 15:21:53.202391,1779823313.202391,,,,,,,,,,,,,,,0.0,0.0,0.0,0.0,0.0,0.0
2026-05-26 15:21:53.212498,1779823313.212498,,,,,,,,,,,,,,,0.0,0.0,0.0,0.0,0.0,0.0
2026-05-26 15:21:53.222791,1779823313.222791,,,,,,,,,,,,,,,0.0,0.0,0.0,0.0,0.0,0.0
2026-05-26 15:21:53.230004,1779823313.230004,,,,,,,,,,,,,,,0.0,0.0,0.0,0.0,0.0,0.0
2026-05-26 15:21:53.240639,1779823313.240639,,,,,,,,,,,,,,,0.0,0.0,0.0,0.0,0.0,0.0
2026-05-26 15:21:53.249809,1779823313.249809,,,,,,,,,,,,,,,0.0,0.0,0.0,0.0,0.0,0.0
2026-05-26 15:21:53.260471,1779823313.260471,,,,,,,,,,,,,,,0.0,0.0,0.0,0.0,0.0,0.0
2026-05-26 15:21:53.270004,1779823313.270004,,,,,,,,,,,,,,,0.0,0.0,0.0,0.0,0.0,0.0
2026-05-26 15:21:53.279513,1779823313.279513,,,,,,,,,,,,,,,0.0,0.0,0.0,0.0,0.0,0.0
2026-05-26 15:21:53.290468,1779823313.290468,,,,,,,,,,,,,,,0.0,0.0,0.0,0.0,0.0,0.0
2026-05-26 15:21:53.300249,1779823313.300249,,,,,,,,,,,,,,,0.0,0.0,0.0,0.0,0.0,0.0
2026-05-26 15:21:53.310292,1779823313.310292,,,,,,,,,,,,,,,0.0,0.0,0.0,0.0,0.0,0.0
2026-05-26 15:21:53.321923,1779823313.321923,,,,,,,,,,,,,,,0.0,0.0,0.0,0.0,0.0,0.0
2026-05-26 15:21:53.329952,1779823313.329952,,,,,,,,,,,,,,,0.0,0.0,0.0,0.0,0.0,0.0
2026-05-26 15:21:53.352157,1779823313.352157,,,,,,,,,,,,,,,0.0,0.0,0.0,0.0,0.0,0.0
2026-05-26 15:21:53.357711,1779823313.357711,,,,,,,,,,,,,,,0.0,0.0,0.0,0.0,0.0,0.0
2026-05-26 15:21:53.445367,1779823313.445367,,,,,,,,,,,,,,,0.0,0.0,0.0,0.0,0.0,0.0
2026-05-26 15:21:53.468297,1779823313.468297,,,,,,,,,,,,,,,0.0,0.0,0.0,0.0,0.0,0.0
2026-05-26 15:21:53.471399,1779823313.471399,,,,,,,,,,,,,,,0.0,0.0,0.0,0.0,0.0,0.0
2026-05-26 15:21:53.474180,1779823313.474180,,,,,,,,,,,,,,,0.0,0.0,0.0,0.0,0.0,0.0
2026-05-26 15:21:53.475788,1779823313.475788,,,,,,,,,,,,,,,0.0,0.0,0.0,0.0,0.0,0.0
2026-05-26 15:21:53.478403,1779823313.478403,,,,,,,,,,,,,,,0.0,0.0,0.0,0.0,0.0,0.0
2026-05-26 15:21:53.479837,1779823313.479837,,,,,,,,,,,,,,,0.0,0.0,0.0,0.0,0.0,0.0
2026-05-26 15:21:53.481899,1779823313.481899,,,,,,,,,,,,,,,0.0,0.0,0.0,0.0,0.0,0.0
2026-05-26 15:21:53.483704,1779823313.483704,,,,,,,,,,,,,,,0.0,0.0,0.0,0.0,0.0,0.0
2026-05-26 15:21:53.487004,1779823313.487004,,,,,,,,,,,,,,,0.0,0.0,0.0,0.0,0.0,0.0
2026-05-26 15:21:53.488929,1779823313.488929,,,,,,,,,,,,,,,0.0,0.0,0.0,0.0,0.0,0.0
2026-05-26 15:21:53.491760,1779823313.491760,,,,,,,,,,,,,,,0.0,0.0,0.0,0.0,0.0,0.0
2026-05-26 15:21:53.493331,1779823313.493331,,,,,,,,,,,,,,,0.0,0.0,0.0,0.0,0.0,0.0
2026-05-26 15:21:53.495408,1779823313.495408,,,,,,,,,,,,,,,0.0,0.0,0.0,0.0,0.0,0.0
2026-05-26 15:21:53.499910,1779823313.499910,,,,,,,,,,,,,,,0.0,0.0,0.0,0.0,0.0,0.0
2026-05-26 15:21:53.509798,1779823313.509798,,,,,,,,,,,,,,,0.0,0.0,0.0,0.0,0.0,0.0
2026-05-26 15:21:53.519941,1779823313.519941,,,,,,,,,,,,,,,0.0,0.0,0.0,0.0,0.0,0.0
2026-05-26 15:21:53.529999,1779823313.529999,,,,,,,,,,,,,,,0.0,0.0,0.0,0.0,0.0,0.0
2026-05-26 15:21:53.540623,1779823313.540623,,,,,,,,,,,,,,,0.0,0.0,0.0,0.0,0.0,0.0
2026-05-26 15:21:53.552779,1779823313.552779,,,,,,,,,,,,,,,0.0,0.0,0.0,0.0,0.0,0.0
2026-05-26 15:21:53.560022,1779823313.560022,,,,,,,,,,,,,,,0.0,0.0,0.0,0.0,0.0,0.0
2026-05-26 15:21:53.570948,1779823313.570948,,,,,,,,,,,,,,,0.0,0.0,0.0,0.0,0.0,0.0
2026-05-26 15:21:53.580277,1779823313.580277,,,,,,,,,,,,,,,0.0,0.0,0.0,0.0,0.0,0.0
2026-05-26 15:21:53.590480,1779823313.590480,,,,,,,,,,,,,,,0.0,0.0,0.0,0.0,0.0,0.0
2026-05-26 15:21:53.601142,1779823313.601142,,,,,,,,,,,,,,,0.0,0.0,0.0,0.0,0.0,0.0
2026-05-26 15:21:53.609899,1779823313.609899,,,,,,,,,,,,,,,0.0,0.0,0.0,0.0,0.0,0.0
2026-05-26 15:21:53.620789,1779823313.620789,,,,,,,,,,,,,,,0.0,0.0,0.0,0.0,0.0,0.0
2026-05-26 15:21:53.629877,1779823313.629877,,,,,,,,,,,,,,,0.0,0.0,0.0,0.0,0.0,0.0
2026-05-26 15:21:53.640992,1779823313.640992,,,,,,,,,,,,,,,0.0,0.0,0.0,0.0,0.0,0.0
2026-05-26 15:21:53.650143,1779823313.650143,,,,,,,,,,,,,,,0.0,0.0,0.0,0.0,0.0,0.0
2026-05-26 15:21:53.659998,1779823313.659998,,,,,,,,,,,,,,,0.0,0.0,0.0,0.0,0.0,0.0
2026-05-26 15:21:53.670933,1779823313.670933,,,,,,,,,,,,,,,0.0,0.0,0.0,0.0,0.0,0.0
2026-05-26 15:21:53.680032,1779823313.680032,,,,,,,,,,,,,,,0.0,0.0,0.0,0.0,0.0,0.0
2026-05-26 15:21:53.690825,1779823313.690825,,,,,,,,,,,,,,,0.0,0.0,0.0,0.0,0.0,0.0
2026-05-26 15:21:53.700060,1779823313.700060,,,,,,,,,,,,,,,0.0,0.0,0.0,0.0,0.0,0.0
2026-05-26 15:21:53.710018,1779823313.710018,,,,,,,,,,,,,,,0.0,0.0,0.0,0.0,0.0,0.0
2026-05-26 15:21:53.721775,1779823313.721775,,,,,,,,,,,,,,,0.0,0.0,0.0,0.0,0.0,0.0
2026-05-26 15:21:53.731188,1779823313.731188,,,,,,,,,,,,,,,0.0,0.0,0.0,0.0,0.0,0.0
2026-05-26 15:21:53.742324,1779823313.742324,,,,,,,,,,,,,,,0.0,0.0,0.0,0.0,0.0,0.0
2026-05-26 15:21:53.752514,1779823313.752514,,,,,,,,,,,,,,,0.0,0.0,0.0,0.0,0.0,0.0
2026-05-26 15:21:53.761630,1779823313.761630,,,,,,,,,,,,,,,0.0,0.0,0.0,0.0,0.0,0.0
2026-05-26 15:21:53.773282,1779823313.773282,,,,,,,,,,,,,,,0.0,0.0,0.0,0.0,0.0,0.0
2026-05-26 15:21:53.779986,1779823313.779986,,,,,,,,,,,,,,,0.0,0.0,0.0,0.0,0.0,0.0
2026-05-26 15:21:53.790608,1779823313.790608,,,,,,,,,,,,,,,0.0,0.0,0.0,0.0,0.0,0.0
2026-05-26 15:21:53.800628,1779823313.800628,,,,,,,,,,,,,,,0.0,0.0,0.0,0.0,0.0,0.0
2026-05-26 15:21:53.809908,1779823313.809908,,,,,,,,,,,,,,,0.0,0.0,0.0,0.0,0.0,0.0
2026-05-26 15:21:53.821054,1779823313.821054,,,,,,,,,,,,,,,0.0,0.0,0.0,0.0,0.0,0.0
2026-05-26 15:21:53.830006,1779823313.830006,,,,,,,,,,,,,,,0.0,0.0,0.0,0.0,0.0,0.0
2026-05-26 15:21:53.841749,1779823313.841749,,,,,,,,,,,,,,,0.0,0.0,0.0,0.0,0.0,0.0
2026-05-26 15:21:53.850397,1779823313.850397,,,,,,,,,,,,,,,0.0,0.0,0.0,0.0,0.0,0.0
2026-05-26 15:21:53.860487,1779823313.860487,,,,,,,,,,,,,,,0.0,0.0,0.0,0.0,0.0,0.0
2026-05-26 15:21:53.871103,1779823313.871103,,,,,,,,,,,,,,,0.0,0.0,0.0,0.0,0.0,0.0
2026-05-26 15:21:53.880003,1779823313.880003,,,,,,,,,,,,,,,0.0,0.0,0.0,0.0,0.0,0.0
2026-05-26 15:21:53.890822,1779823313.890822,,,,,,,,,,,,,,,0.0,0.0,0.0,0.0,0.0,0.0
2026-05-26 15:21:53.900075,1779823313.900075,,,,,,,,,,,,,,,0.0,0.0,0.0,0.0,0.0,0.0
2026-05-26 15:21:53.910563,1779823313.910563,,,,,,,,,,,,,,,0.0,0.0,0.0,0.0,0.0,0.0
2026-05-26 15:21:53.921668,1779823313.921668,,,,,,,,,,,,,,,0.0,0.0,0.0,0.0,0.0,0.0
2026-05-26 15:21:53.930320,1779823313.930320,,,,,,,,,,,,,,,0.0,0.0,0.0,0.0,0.0,0.0
2026-05-26 15:21:53.940795,1779823313.940795,,,,,,,,,,,,,,,0.0,0.0,0.0,0.0,0.0,0.0
2026-05-26 15:21:53.950541,1779823313.950541,,,,,,,,,,,,,,,0.0,0.0,0.0,0.0,0.0,0.0
2026-05-26 15:21:53.961080,1779823313.961080,,,,,,,,,,,,,,,0.0,0.0,0.0,0.0,0.0,0.0
2026-05-26 15:21:53.970675,1779823313.970675,,,,,,,,,,,,,,,0.0,0.0,0.0,0.0,0.0,0.0
2026-05-26 15:21:53.980090,1779823313.980090,,,,,,,,,,,,,,,0.0,0.0,0.0,0.0,0.0,0.0
2026-05-26 15:21:53.991080,1779823313.991080,,,,,,,,,,,,,,,0.0,0.0,0.0,0.0,0.0,0.0
2026-05-26 15:21:54.000291,1779823314.000291,,,,,,,,,,,,,,,0.0,0.0,0.0,0.0,0.0,0.0
2026-05-26 15:21:54.010695,1779823314.010695,,,,,,,,,,,,,,,0.0,0.0,0.0,0.0,0.0,0.0
2026-05-26 15:21:54.020433,1779823314.020433,,,,,,,,,,,,,,,0.0,0.0,0.0,0.0,0.0,0.0
2026-05-26 15:21:54.030094,1779823314.030094,,,,,,,,,,,,,,,0.0,0.0,0.0,0.0,0.0,0.0
2026-05-26 15:21:54.040572,1779823314.040572,,,,,,,,,,,,,,,0.0,0.0,0.0,0.0,0.0,0.0
2026-05-26 15:21:54.050088,1779823314.050088,,,,,,,,,,,,,,,0.0,0.0,0.0,0.0,0.0,0.0
2026-05-26 15:21:54.060794,1779823314.060794,,,,,,,,,,,,,,,0.0,0.0,0.0,0.0,0.0,0.0
2026-05-26 15:21:54.070783,1779823314.070783,,,,,,,,,,,,,,,0.0,0.0,0.0,0.0,0.0,0.0
2026-05-26 15:21:54.080066,1779823314.080066,,,,,,,,,,,,,,,0.0,0.0,0.0,0.0,0.0,0.0
2026-05-26 15:21:54.090433,1779823314.090433,,,,,,,,,,,,,,,0.0,0.0,0.0,0.0,0.0,0.0
2026-05-26 15:21:54.100497,1779823314.100497,,,,,,,,,,,,,,,0.0,0.0,0.0,0.0,0.0,0.0
2026-05-26 15:21:54.110227,1779823314.110227,,,,,,,,,,,,,,,0.0,0.0,0.0,0.0,0.0,0.0
2026-05-26 15:21:54.120674,1779823314.120674,,,,,,,,,,,,,,,0.0,0.0,0.0,0.0,0.0,0.0
2026-05-26 15:21:54.130085,1779823314.130085,,,,,,,,,,,,,,,0.0,0.0,0.0,0.0,0.0,0.0
2026-05-26 15:21:54.140624,1779823314.140624,,,,,,,,,,,,,,,0.0,0.0,0.0,0.0,0.0,0.0
2026-05-26 15:21:54.150186,1779823314.150186,,,,,,,,,,,,,,,0.0,0.0,0.0,0.0,0.0,0.0
2026-05-26 15:21:54.160243,1779823314.160243,,,,,,,,,,,,,,,0.0,0.0,0.0,0.0,0.0,0.0
2026-05-26 15:21:54.170541,1779823314.170541,,,,,,,,,,,,,,,0.0,0.0,0.0,0.0,0.0,0.0
2026-05-26 15:21:54.179838,1779823314.179838,,,,,,,,,,,,,,,0.0,0.0,0.0,0.0,0.0,0.0
2026-05-26 15:21:54.192583,1779823314.192583,,,,,,,,,,,,,,,0.0,0.0,0.0,0.0,0.0,0.0
2026-05-26 15:21:54.200476,1779823314.200476,,,,,,,,,,,,,,,0.0,0.0,0.0,0.0,0.0,0.0
2026-05-26 15:21:54.210624,1779823314.210624,,,,,,,,,,,,,,,0.0,0.0,0.0,0.0,0.0,0.0
2026-05-26 15:21:54.221415,1779823314.221415,,,,,,,,,,,,,,,0.0,0.0,0.0,0.0,0.0,0.0
2026-05-26 15:21:54.230016,1779823314.230016,,,,,,,,,,,,,,,0.0,0.0,0.0,0.0,0.0,0.0
2026-05-26 15:21:54.240820,1779823314.240820,,,,,,,,,,,,,,,0.0,0.0,0.0,0.0,0.0,0.0
2026-05-26 15:21:54.250087,1779823314.250087,,,,,,,,,,,,,,,0.0,0.0,0.0,0.0,0.0,0.0
2026-05-26 15:21:54.260171,1779823314.260171,,,,,,,,,,,,,,,0.0,0.0,0.0,0.0,0.0,0.0
2026-05-26 15:21:54.271069,1779823314.271069,,,,,,,,,,,,,,,0.0,0.0,0.0,0.0,0.0,0.0
2026-05-26 15:21:54.280888,1779823314.280888,,,,,,,,,,,,,,,0.0,0.0,0.0,0.0,0.0,0.0
2026-05-26 15:21:54.291954,1779823314.291954,,,,,,,,,,,,,,,0.0,0.0,0.0,0.0,0.0,0.0
2026-05-26 15:21:54.301107,1779823314.301107,,,,,,,,,,,,,,,0.0,0.0,0.0,0.0,0.0,0.0
2026-05-26 15:21:54.311310,1779823314.311310,,,,,,,,,,,,,,,0.0,0.0,0.0,0.0,0.0,0.0
2026-05-26 15:21:54.322982,1779823314.322982,,,,,,,,,,,,,,,0.0,0.0,0.0,0.0,0.0,0.0
2026-05-26 15:21:54.329787,1779823314.329787,,,,,,,,,,,,,,,0.0,0.0,0.0,0.0,0.0,0.0
2026-05-26 15:21:54.353120,1779823314.353120,,,,,,,,,,,,,,,0.0,0.0,0.0,0.0,0.0,0.0
2026-05-26 15:21:54.354560,1779823314.354560,-2031847,-3637786,162851096,79101,6641,20508,-0.12161628651458742,-0.21773983201232913,9.747459110036623,0.018287640403747557,0.001535356315612793,0.004741317169189453,61,06f3fe00,0.0,0.0,0.0,0.0,0.0,0.0
2026-05-26 15:21:54.358827,1779823314.358827,-2031847,-3637786,162851096,79101,6641,20508,-0.12161628651458742,-0.21773983201232913,9.747459110036623,0.018287640403747557,0.001535356315612793,0.004741317169189453,61,06f3fe00,0.0,0.0,0.0,0.0,0.0,0.0
2026-05-26 15:21:54.361719,1779823314.361719,-2031847,-3637786,162851096,79101,6641,20508,-0.12161628651458742,-0.21773983201232913,9.747459110036623,0.018287640403747557,0.001535356315612793,0.004741317169189453,61,06f3fe00,0.0,0.0,0.0,0.0,0.0,0.0
2026-05-26 15:21:54.465558,1779823314.465558,-3006350,-3523448,165930202,95905,170241,39637,-0.1799452040252686,-0.2108961262768555,9.931759127461548,0.022172616691589354,0.03935861986541748,0.00916381844329834,61,06f3fe00,0.0,0.0,0.0,0.0,0.0,0.0
2026-05-26 15:21:54.468544,1779823314.468544,-3006350,-3523448,165930202,95905,170241,39637,-0.1799452040252686,-0.2108961262768555,9.931759127461548,0.022172616691589354,0.03935861986541748,0.00916381844329834,61,06f3fe00,0.0,0.0,0.0,0.0,0.0,0.0
2026-05-26 15:21:54.492108,1779823314.492108,-3168536,-3539767,165799584,356,-127072,38024,-0.1896528537866211,-0.21187290069915773,9.923940981650391,8.230490112304687e-05,-0.029378225830078125,0.008790903259277344,61,06f3fe00,0.0,0.0,0.0,0.0,0.0,0.0
2026-05-26 15:21:54.494327,1779823314.494327,-3168536,-3539767,165799584,356,-127072,38024,-0.1896528537866211,-0.21187290069915773,9.923940981650391,8.230490112304687e-05,-0.029378225830078125,0.008790903259277344,61,06f3fe00,0.0,0.0,0.0,0.0,0.0,0.0
2026-05-26 15:21:54.495545,1779823314.495545,-2545355,-3887791,163749118,-70612,-154877,46551,-0.1523523291671753,-0.2327038916635132,9.801210254118043,-0.01632503842163086,-0.03580656227874756,0.0107622905960083,61,06f3fe00,0.0,0.0,0.0,0.0,0.0,0.0
2026-05-26 15:21:54.497467,1779823314.497467,-2545355,-3887791,163749118,-70612,-154877,46551,-0.1523523291671753,-0.2327038916635132,9.801210254118043,-0.01632503842163086,-0.03580656227874756,0.0107622905960083,61,06f3fe00,0.0,0.0,0.0,0.0,0.0,0.0
2026-05-26 15:21:54.500683,1779823314.500683,-2474472,-3951777,162439873,21353,18796,29532,-0.14810962426025392,-0.23653377634918216,9.722845340304263,0.00493667571258545,0.004345513824462891,0.006827607696533203,61,06f3fe00,0.0,0.0,0.0,0.0,0.0,0.0
2026-05-26 15:21:54.503348,1779823314.503348,-2474472,-3951777,162439873,21353,18796,29532,-0.14810962426025392,-0.23653377634918216,9.722845340304263,0.00493667571258545,0.004345513824462891,0.006827607696533203,61,06f3fe00,0.0,0.0,0.0,0.0,0.0,0.0
2026-05-26 15:21:54.504944,1779823314.504944,-2393889,-3894255,164480517,118196,151928,44124,-0.14328632545074466,-0.23309079465179447,9.84498817161896,0.027326151947021485,0.03512477252197266,0.010201183868408204,61,06f3fe00,0.0,0.0,0.0,0.0,0.0,0.0
2026-05-26 15:21:54.507352,1779823314.507352,-2393889,-3894255,164480517,118196,151928,44124,-0.14328632545074466,-0.23309079465179447,9.84498817161896,0.027326151947021485,0.03512477252197266,0.010201183868408204,61,06f3fe00,0.0,0.0,0.0,0.0,0.0,0.0
2026-05-26 15:21:54.510476,1779823314.510476,-3130518,-3608556,165744390,-76285,-216559,66155,-0.18737728481872562,-0.21599026914916994,9.920637342489625,-0.017636599388122558,-0.05006704236602783,0.01529460880279541,61,06f3fe00,0.0,0.0,0.0,0.0,0.0,0.0
2026-05-26 15:21:54.512274,1779823314.512274,-3130518,-3608556,165744390,-76285,-216559,66155,-0.18737728481872562,-0.21599026914916994,9.920637342489625,-0.017636599388122558,-0.05006704236602783,0.01529460880279541,61,06f3fe00,0.0,0.0,0.0,0.0,0.0,0.0
2026-05-26 15:21:54.513338,1779823314.513338,-2713585,-3731375,164665133,-114582,-314433,63694,-0.16242174279937746,-0.22334160549163823,9.856038369961244,-0.02649061848449707,-0.07269487914276124,0.014725641494750977,61,06f3fe00,0.0,0.0,0.0,0.0,0.0,0.0
2026-05-26 15:21:54.515036,1779823314.515036,-2713585,-3731375,164665133,-114582,-314433,63694,-0.16242174279937746,-0.22334160549163823,9.856038369961244,-0.02649061848449707,-0.07269487914276124,0.014725641494750977,61,06f3fe00,0.0,0.0,0.0,0.0,0.0,0.0
2026-05-26 15:21:54.518359,1779823314.518359,-2217967,-3852293,162185616,57532,-7452,47138,-0.13275650683929446,-0.23057915740020754,9.707626777016603,0.013301026885986328,-0.0017228542785644532,0.010898001205444336,61,06f3fe00,0.0,0.0,0.0,0.0,0.0,0.0
2026-05-26 15:21:54.521287,1779823314.521287,-2217967,-3852293,162185616,57532,-7452,47138,-0.13275650683929446,-0.23057915740020754,9.707626777016603,0.013301026885986328,-0.0017228542785644532,0.010898001205444336,61,06f3fe00,0.0,0.0,0.0,0.0,0.0,0.0
2026-05-26 15:21:54.522807,1779823314.522807,-2072158,-3894126,163092146,131251,37963,36763,-0.12402910309265139,-0.23308307335144046,9.761887167791139,0.030344383644104005,0.008776800453186035,0.008499368202209473,61,06f3fe00,0.0,0.0,0.0,0.0,0.0,0.0
2026-05-26 15:21:54.525398,1779823314.525398,-2072158,-3894126,163092146,131251,37963,36763,-0.12402910309265139,-0.23308307335144046,9.761887167791139,0.030344383644104005,0.008776800453186035,0.008499368202209473,61,06f3fe00,0.0,0.0,0.0,0.0,0.0,0.0
2026-05-26 15:21:54.527289,1779823314.527289,-2709092,-3902747,165719585,112296,309570,79678,-0.16215281409790042,-0.23359908366424564,9.919152638185121,0.025962110046386717,0.07157058494567871,0.01842103907775879,61,06f2fe00,0.0,0.0,0.0,0.0,0.0,0.0
2026-05-26 15:21:54.529748,1779823314.529748,-2709092,-3902747,165719585,112296,309570,79678,-0.16215281409790042,-0.23359908366424564,9.919152638185121,0.025962110046386717,0.07157058494567871,0.01842103907775879,61,06f2fe00,0.0,0.0,0.0,0.0,0.0,0.0
2026-05-26 15:21:54.531595,1779823314.531595,-2909720,-4054041,164751021,-133240,-248567,83298,-0.1741614113647461,-0.24265479231353762,9.861179199765932,-0.030804227600097656,-0.057467085273742675,0.019257959701538086,61,06f2fe00,0.0,0.0,0.0,0.0,0.0,0.0
2026-05-26 15:21:54.533446,1779823314.533446,-2909720,-4054041,164751021,-133240,-248567,83298,-0.1741614113647461,-0.24265479231353762,9.861179199765932,-0.030804227600097656,-0.057467085273742675,0.019257959701538086,61,06f2fe00,0.0,0.0,0.0,0.0,0.0,0.0
2026-05-26 15:21:54.536397,1779823314.536397,-2771396,-3971845,162689449,-15963,-22030,86412,-0.16588202260375978,-0.23773494732208256,9.737783722142641,-0.0036905425186157226,-0.005093193740844727,0.019977896392822266,61,06f2fe00,0.0,0.0,0.0,0.0,0.0,0.0
2026-05-26 15:21:54.538613,1779823314.538613,-2771396,-3971845,162689449,-15963,-22030,86412,-0.16588202260375978,-0.23773494732208256,9.737783722142641,-0.0036905425186157226,-0.005093193740844727,0.019977896392822266,61,06f2fe00,0.0,0.0,0.0,0.0,0.0,0.0
2026-05-26 15:21:54.540208,1779823314.540208,-2605854,-3847301,162644337,64582,-93610,70961,-0.15597349932312013,-0.23028036103302005,9.735083541510317,0.014930941360473633,-0.02164202751159668,0.01640572496795654,61,06f2fe00,0.0,0.0,0.0,0.0,0.0,0.0
2026-05-26 15:21:54.541987,1779823314.541987,-2605854,-3847301,162644337,64582,-93610,70961,-0.15597349932312013,-0.23028036103302005,9.735083541510317,0.014930941360473633,-0.02164202751159668,0.01640572496795654,61,06f2fe00,0.0,0.0,0.0,0.0,0.0,0.0
2026-05-26 15:21:54.543410,1779823314.543410,-2659810,-3674034,165562496,150580,227020,122946,-0.1592030379425049,-0.21990945755676272,9.909750069570315,0.034813123626708985,0.052485558013916016,0.02842432127380371,61,06f3fe00,0.0,0.0,0.0,0.0,0.0,0.0
2026-05-26 15:21:54.545310,1779823314.545310,-2659810,-3674034,165562496,150580,227020,122946,-0.1592030379425049,-0.21990945755676272,9.909750069570315,0.034813123626708985,0.052485558013916016,0.02842432127380371,61,06f3fe00,0.0,0.0,0.0,0.0,0.0,0.0
2026-05-26 15:21:54.546826,1779823314.546826,-2893045,-3617834,165698152,42847,-34373,123646,-0.17316332854766847,-0.21654560422424318,9.917869765080567,0.009905949714660644,-0.007946815635681153,0.02858615675354004,61,06f3fe00,0.0,0.0,0.0,0.0,0.0,0.0
2026-05-26 15:21:54.548931,1779823314.548931,-2893045,-3617834,165698152,42847,-34373,123646,-0.17316332854766847,-0.21654560422424318,9.917869765080567,0.009905949714660644,-0.007946815635681153,0.02858615675354004,61,06f3fe00,0.0,0.0,0.0,0.0,0.0,0.0
2026-05-26 15:21:54.550047,1779823314.550047,-2508197,-3992755,164243789,-41642,-116178,128964,-0.15012823553497318,-0.23898651623992923,9.830818807353822,-0.00962736149597168,-0.026859603378295897,0.02981564401245117,61,06f2fe00,0.0,0.0,0.0,0.0,0.0,0.0
2026-05-26 15:21:54.552325,1779823314.552325,-2508197,-3992755,164243789,-41642,-116178,128964,-0.15012823553497318,-0.23898651623992923,9.830818807353822,-0.00962736149597168,-0.026859603378295897,0.02981564401245117,61,06f2fe00,0.0,0.0,0.0,0.0,0.0,0.0
2026-05-26 15:21:54.553642,1779823314.553642,-2845467,-4034119,162681885,71057,74351,118432,-0.17031554538299562,-0.2414623601766968,9.737330978608705,0.01642791954803467,0.01718947107696533,0.027380713623046875,61,06f2fe00,0.0,0.0,0.0,0.0,0.0,0.0
2026-05-26 15:21:54.555756,1779823314.555756,-2845467,-4034119,162681885,71057,74351,118432,-0.17031554538299562,-0.2414623601766968,9.737330978608705,0.01642791954803467,0.01718947107696533,0.027380713623046875,61,06f2fe00,0.0,0.0,0.0,0.0,0.0,0.0
2026-05-26 15:21:54.557068,1779823314.557068,-2582721,-4072396,164067811,167737,60733,109606,-0.15458887264801027,-0.24375343160034182,9.820285636860048,0.03877971123504639,0.014041077415466308,0.025340199417114257,61,06f2fe00,0.0,0.0,0.0,0.0,0.0,0.0
2026-05-26 15:21:54.558661,1779823314.558661,-2582721,-4072396,164067811,167737,60733,109606,-0.15458887264801027,-0.24375343160034182,9.820285636860048,0.03877971123504639,0.014041077415466308,0.025340199417114257,61,06f2fe00,0.0,0.0,0.0,0.0,0.0,0.0
2026-05-26 15:21:54.559770,1779823314.559770,-3029523,-3809183,165688867,138456,119341,129451,-0.1813322249020386,-0.22799880656097415,9.917314011020204,0.03201013311767578,0.02759086855316162,0.029928235267639162,61,06f1fe00,0.0,0.0,0.0,0.0,0.0,0.0
2026-05-26 15:21:54.562163,1779823314.562163,-3029523,-3809183,165688867,138456,119341,129451,-0.1813322249020386,-0.22799880656097415,9.917314011020204,0.03201013311767578,0.02759086855316162,0.029928235267639162,61,06f1fe00,0.0,0.0,0.0,0.0,0.0,0.0
2026-05-26 15:21:54.563424,1779823314.563424,-2483619,-3809407,164939939,-53958,-345183,136488,-0.14865711832489015,-0.22801221409027103,9.872486894496767,-0.012474741165161132,-0.07980408057403564,0.03155514422607422,61,06f1fe00,0.0,0.0,0.0,0.0,0.0,0.0
2026-05-26 15:21:54.564879,1779823314.564879,-2483619,-3809407,164939939,-53958,-345183,136488,-0.14865711832489015,-0.22801221409027103,9.872486894496767,-0.012474741165161132,-0.07980408057403564,0.03155514422607422,61,06f1fe00,0.0,0.0,0.0,0.0,0.0,0.0
2026-05-26 15:21:54.565777,1779823314.565777,-2087276,-3840568,162785516,22811,29026,149470,-0.12493399161010744,-0.22987735703857426,9.743533816414796,0.005273755897521972,0.006710623764038086,0.03455649879455566,61,06f2fe00,0.0,0.0,0.0,0.0,0.0,0.0
2026-05-26 15:21:54.567549,1779823314.567549,-2087276,-3840568,162785516,22811,29026,149470,-0.12493399161010744,-0.22987735703857426,9.743533816414796,0.005273755897521972,0.006710623764038086,0.03455649879455566,61,06f2fe00,0.0,0.0,0.0,0.0,0.0,0.0
2026-05-26 15:21:54.569440,1779823314.569440,-2089176,-3702744,162949396,149955,13940,108461,-0.12504771618896487,-0.22162789579833989,9.753342860616456,0.03466862766265869,0.003222837982177734,0.02507548281097412,61,06f2fe00,0.0,0.0,0.0,0.0,0.0,0.0
2026-05-26 15:21:54.570958,1779823314.570958,-2089176,-3702744,162949396,149955,13940,108461,-0.12504771618896487,-0.22162789579833989,9.753342860616456,0.03466862766265869,0.003222837982177734,0.02507548281097412,61,06f2fe00,0.0,0.0,0.0,0.0,0.0,0.0
2026-05-26 15:21:54.579710,1779823314.579710,-2535998,-3620160,165136638,225100,297836,81742,-0.15179226554382327,-0.2166848270507813,9.884260321305543,0.05204166641235351,0.06885775991821289,0.018898222549438477,61,06f2fe00,0.0,0.0,0.0,0.0,0.0,0.0
2026-05-26 15:21:54.582013,1779823314.582013,-2535998,-3620160,165136638,225100,297836,81742,-0.15179226554382327,-0.2166848270507813,9.884260321305543,0.05204166641235351,0.06885775991821289,0.018898222549438477,61,06f2fe00,0.0,0.0,0.0,0.0,0.0,0.0
2026-05-26 15:21:54.589742,1779823314.589742,-2979908,-3734646,164916096,-1837,-254854,40402,-0.1783625170178223,-0.2235373913323975,9.871059770742189,-0.0004247025375366211,-0.05892059907531738,0.009340681503295898,61,06f1fe00,0.0,0.0,0.0,0.0,0.0,0.0
2026-05-26 15:21:54.591957,1779823314.591957,-2979908,-3734646,164916096,-1837,-254854,40402,-0.1783625170178223,-0.2235373913323975,9.871059770742189,-0.0004247025375366211,-0.05892059907531738,0.009340681503295898,61,06f1fe00,0.0,0.0,0.0,0.0,0.0,0.0
2026-05-26 15:21:54.599990,1779823314.599990,-2798176,-3842991,163065599,25877,29290,50579,-0.1674849406152344,-0.23002238580413822,9.760298196004335,0.0059825952987670895,0.00677165885925293,0.01169353818511963,61,06f1fe00,0.0,0.0,0.0,0.0,0.0,0.0
2026-05-26 15:21:54.602387,1779823314.602387,-2798176,-3842991,163065599,25877,29290,50579,-0.1674849406152344,-0.23002238580413822,9.760298196004335,0.0059825952987670895,0.00677165885925293,0.01169353818511963,61,06f1fe00,0.0,0.0,0.0,0.0,0.0,0.0
2026-05-26 15:21:54.609532,1779823314.609532,-2591714,-3675804,163376759,119748,-25981,60854,-0.1551271490362549,-0.22001540098022465,9.77892269071869,0.027684964324951173,-0.006006639427185058,0.014069051834106446,61,06f1fe00,0.0,0.0,0.0,0.0,0.0,0.0
2026-05-26 15:21:54.611304,1779823314.611304,-2591714,-3675804,163376759,119748,-25981,60854,-0.1551271490362549,-0.22001540098022465,9.77892269071869,0.027684964324951173,-0.006006639427185058,0.014069051834106446,61,06f1fe00,0.0,0.0,0.0,0.0,0.0,0.0
2026-05-26 15:21:54.620655,1779823314.620655,-2622386,-3527864,165209982,131255,180772,99384,-0.15696302286926272,-0.21116044614013674,9.888650329469606,0.030345308418273927,0.041793319061279297,0.022976939025878905,61,06f1fe00,0.0,0.0,0.0,0.0,0.0,0.0
2026-05-26 15:21:54.623437,1779823314.623437,-2622386,-3527864,165209982,131255,180772,99384,-0.15696302286926272,-0.21116044614013674,9.888650329469606,0.030345308418273927,0.041793319061279297,0.022976939025878905,61,06f1fe00,0.0,0.0,0.0,0.0,0.0,0.0
2026-05-26 15:21:54.630014,1779823314.630014,-2824155,-3379032,165054721,-34862,-222935,95006,-0.1690399147384644,-0.20225210060302737,9.879357175870668,-0.008059869277954101,-0.0515411323928833,0.021964773696899413,61,06f1fe00,0.0,0.0,0.0,0.0,0.0,0.0
2026-05-26 15:21:54.632700,1779823314.632700,-2824155,-3379032,165054721,-34862,-222935,95006,-0.1690399147384644,-0.20225210060302737,9.879357175870668,-0.008059869277954101,-0.0515411323928833,0.021964773696899413,61,06f1fe00,0.0,0.0,0.0,0.0,0.0,0.0
2026-05-26 15:21:54.640123,1779823314.640123,-2509812,-3492165,164304438,-49097,-253185,101249,-0.15022490142700198,-0.2090236810134888,9.834448955765993,-0.011350909355163575,-0.05853473705291748,0.02340811498260498,61,06f1fe00,0.0,0.0,0.0,0.0,0.0,0.0
2026-05-26 15:21:54.643217,1779823314.643217,-2509812,-3492165,164304438,-49097,-253185,101249,-0.15022490142700198,-0.2090236810134888,9.834448955765993,-0.011350909355163575,-0.05853473705291748,0.02340811498260498,61,06f1fe00,0.0,0.0,0.0,0.0,0.0,0.0
2026-05-26 15:21:54.649571,1779823314.649571,-2602538,-3662637,163112315,87502,10469,50682,-0.15577502000549318,-0.21922728964874272,9.763094384123232,0.020229897354125975,0.002420365196228027,0.011717351119995117,61,06f1fe00,0.0,0.0,0.0,0.0,0.0,0.0
2026-05-26 15:21:54.652410,1779823314.652410,-2602538,-3662637,163112315,87502,10469,50682,-0.15577502000549318,-0.21922728964874272,9.763094384123232,0.020229897354125975,0.002420365196228027,0.011717351119995117,61,06f1fe00,0.0,0.0,0.0,0.0,0.0,0.0
2026-05-26 15:21:54.660123,1779823314.660123,-2458793,-3818641,164825281,186901,122366,42722,-0.14717115706451417,-0.2285649155435181,9.865624035148011,0.04321030428314209,0.028290229019165038,0.009877050521850585,61,06f1fe00,0.0,0.0,0.0,0.0,0.0,0.0
2026-05-26 15:21:54.662154,1779823314.662154,-2458793,-3818641,164825281,186901,122366,42722,-0.14717115706451417,-0.2285649155435181,9.865624035148011,0.04321030428314209,0.028290229019165038,0.009877050521850585,61,06f1fe00,0.0,0.0,0.0,0.0,0.0,0.0
2026-05-26 15:21:54.669886,1779823314.669886,-2775846,-3758840,165399038,130894,177482,32196,-0.16614837753845219,-0.224985524206543,9.899966284196168,0.030261847549438475,0.041032692306518556,0.007443507293701172,61,06f1fe00,0.0,0.0,0.0,0.0,0.0,0.0
2026-05-26 15:21:54.672208,1779823314.672208,-2775846,-3758840,165399038,130894,177482,32196,-0.16614837753845219,-0.224985524206543,9.899966284196168,0.030261847549438475,0.041032692306518556,0.007443507293701172,61,06f1fe00,0.0,0.0,0.0,0.0,0.0,0.0
2026-05-26 15:21:54.680101,1779823314.680101,-2863031,-3783679,164799650,-55507,-246934,21096,-0.17136683933197025,-0.22647226358245853,9.864089890579224,-0.012832859962463378,-0.05708954621887207,0.004877258972167969,61,06f1fe00,0.0,0.0,0.0,0.0,0.0,0.0
2026-05-26 15:21:54.682084,1779823314.682084,-2863031,-3783679,164799650,-55507,-246934,21096,-0.17136683933197025,-0.22647226358245853,9.864089890579224,-0.012832859962463378,-0.05708954621887207,0.004877258972167969,61,06f1fe00,0.0,0.0,0.0,0.0,0.0,0.0
2026-05-26 15:21:54.690092,1779823314.690092,-2352446,-3727724,163366168,-20375,14386,47701,-0.14080575296569825,-0.22312307473510745,9.778288765974123,-0.004710568428039551,0.0033259503021240235,0.01102816316986084,61,06f1fe00,0.0,0.0,0.0,0.0,0.0,0.0
2026-05-26 15:21:54.692801,1779823314.692801,-2352446,-3727724,163366168,-20375,14386,47701,-0.14080575296569825,-0.22312307473510745,9.778288765974123,-0.004710568428039551,0.0033259503021240235,0.01102816316986084,61,06f1fe00,0.0,0.0,0.0,0.0,0.0,0.0
2026-05-26 15:21:54.699955,1779823314.699955,-2514332,-3532672,163302918,56399,32360,41770,-0.15049544621459962,-0.21144822917968753,9.774502934599,0.013039084602355958,0.007481423034667969,0.00965695426940918,61,06f1fe00,0.0,0.0,0.0,0.0,0.0,0.0
2026-05-26 15:21:54.702847,1779823314.702847,-2514332,-3532672,163302918,56399,32360,41770,-0.15049544621459962,-0.21144822917968753,9.774502934599,0.013039084602355958,0.007481423034667969,0.00965695426940918,61,06f1fe00,0.0,0.0,0.0,0.0,0.0,0.0
2026-05-26 15:21:54.709554,1779823314.709554,-2450305,-3505629,165055400,157963,204031,60551,-0.14666310747222902,-0.2098295692922974,9.879397817443849,0.036520025550842286,0.04717064966583252,0.013999000190734863,61,06f1fe00,0.0,0.0,0.0,0.0,0.0,0.0
2026-05-26 15:21:54.711192,1779823314.711192,-2450305,-3505629,165055400,157963,204031,60551,-0.14666310747222902,-0.2098295692922974,9.879397817443849,0.036520025550842286,0.04717064966583252,0.013999000190734863,61,06f1fe00,0.0,0.0,0.0,0.0,0.0,0.0
2026-05-26 15:21:54.719284,1779823314.719284,-3068214,-3533709,165312577,35442,-18223,56785,-0.18364807631286623,-0.21151029885772707,9.8947911574527,0.008193961532592773,-0.0042130399246215824,0.013128325309753419,61,06f1fe00,0.0,0.0,0.0,0.0,0.0,0.0
2026-05-26 15:21:54.721472,1779823314.721472,-3068214,-3533709,165312577,35442,-18223,56785,-0.18364807631286623,-0.21151029885772707,9.8947911574527,0.008193961532592773,-0.0042130399246215824,0.013128325309753419,61,06f1fe00,0.0,0.0,0.0,0.0,0.0,0.0
2026-05-26 15:21:54.729759,1779823314.729759,-2604642,-3929496,164044791,2268,-80317,52068,-0.1559009550128174,-0.23520014616943363,9.818907773804629,0.0005243469543457031,-0.01856877175140381,0.012037785369873048,61,06f1fe00,0.0,0.0,0.0,0.0,0.0,0.0
2026-05-26 15:21:54.731681,1779823314.731681,-2604642,-3929496,164044791,2268,-80317,52068,-0.1559009550128174,-0.23520014616943363,9.818907773804629,0.0005243469543457031,-0.01856877175140381,0.012037785369873048,61,06f1fe00,0.0,0.0,0.0,0.0,0.0,0.0
2026-05-26 15:21:54.739808,1779823314.739808,-2694276,-3729711,163607192,92903,-56470,43951,-0.16126600180297854,-0.2232420067025757,9.79271526749756,0.02147857367706299,-0.01305549934387207,0.010161187385559082,61,06f1fe00,0.0,0.0,0.0,0.0,0.0,0.0
2026-05-26 15:21:54.742106,1779823314.742106,-2694276,-3729711,163607192,92903,-56470,43951,-0.16126600180297854,-0.2232420067025757,9.79271526749756,0.02147857367706299,-0.01305549934387207,0.010161187385559082,61,06f1fe00,0.0,0.0,0.0,0.0,0.0,0.0
2026-05-26 15:21:54.749893,1779823314.749893,-2581882,-3719120,165189010,163343,167945,64792,-0.1545386542681885,-0.22260808195800785,9.887395049539187,0.03776384680938721,0.03882779949188232,0.014979492004394532,61,06f1fe00,0.0,0.0,0.0,0.0,0.0,0.0
2026-05-26 15:21:54.752370,1779823314.752370,-2581882,-3719120,165189010,163343,167945,64792,-0.1545386542681885,-0.22260808195800785,9.887395049539187,0.03776384680938721,0.03882779949188232,0.014979492004394532,61,06f1fe00,0.0,0.0,0.0,0.0,0.0,0.0
2026-05-26 15:21:54.759716,1779823314.759716,-2843998,-3496166,165090065,5068,-204994,60470,-0.1702276183270264,-0.20926316103454592,9.881472692457582,0.0011716888732910156,-0.04739328904724121,0.013980273513793945,61,06f0fe00,0.0,0.0,0.0,0.0,0.0,0.0
2026-05-26 15:21:54.761687,1779823314.761687,-2843998,-3496166,165090065,5068,-204994,60470,-0.1702276183270264,-0.20926316103454592,9.881472692457582,0.0011716888732910156,-0.04739328904724121,0.013980273513793945,61,06f0fe00,0.0,0.0,0.0,0.0,0.0,0.0
2026-05-26 15:21:54.769837,1779823314.769837,-2080165,-3774638,163615161,14532,-80991,72685,-0.12450836240997316,-0.22593111415222172,9.793192252323305,0.003359704559326172,-0.018724596199035645,0.01680430263519287,61,06f0fe00,0.0,0.0,0.0,0.0,0.0,0.0
2026-05-26 15:21:54.772119,1779823314.772119,-2080165,-3774638,163615161,14532,-80991,72685,-0.12450836240997316,-0.22593111415222172,9.793192252323305,0.003359704559326172,-0.018724596199035645,0.01680430263519287,61,06f0fe00,0.0,0.0,0.0,0.0,0.0,0.0
2026-05-26 15:21:54.780036,1779823314.780036,-2349793,-3642206,162808585,67566,80060,77251,-0.1406469575405884,-0.2180043912957764,9.74491461236725,0.015620822891235352,0.018509355010986328,0.017859932350158692,61,06f0fe00,0.0,0.0,0.0,0.0,0.0,0.0
2026-05-26 15:21:54.782174,1779823314.782174,-2349793,-3642206,162808585,67566,80060,77251,-0.1406469575405884,-0.2180043912957764,9.74491461236725,0.015620822891235352,0.018509355010986328,0.017859932350158692,61,06f0fe00,0.0,0.0,0.0,0.0,0.0,0.0
2026-05-26 15:21:54.790136,1779823314.790136,-2349033,-3697428,164554919,136904,149363,58621,-0.14060146770904544,-0.2213097063977051,9.849441506416932,0.031651320739746094,0.03453176108551025,0.013552796653747558,61,06f0fe00,0.0,0.0,0.0,0.0,0.0,0.0
2026-05-26 15:21:54.793792,1779823314.793792,-2349033,-3697428,164554919,136904,149363,58621,-0.14060146770904544,-0.2213097063977051,9.849441506416932,0.031651320739746094,0.03453176108551025,0.013552796653747558,61,06f0fe00,0.0,0.0,0.0,0.0,0.0,0.0
2026-05-26 15:21:54.799730,1779823314.799730,-2815355,-3599719,165381924,87174,270016,72213,-0.16851319037323,-0.21546133014739993,9.89894192501587,0.020154065872192383,0.062425955566406253,0.01669517928314209,61,06f0fe00,0.0,0.0,0.0,0.0,0.0,0.0
2026-05-26 15:21:54.802379,1779823314.802379,-2815355,-3599719,165381924,87174,270016,72213,-0.16851319037323,-0.21546133014739993,9.89894192501587,0.020154065872192383,0.062425955566406253,0.01669517928314209,61,06f0fe00,0.0,0.0,0.0,0.0,0.0,0.0
2026-05-26 15:21:54.810157,1779823314.810157,-3388792,-3591422,165502041,-62864,-188327,79907,-0.2028362858081055,-0.21496471286804203,9.906131533036195,-0.014533750854492187,-0.043539986274719236,0.018473982398986816,61,06f0fe00,0.0,0.0,0.0,0.0,0.0,0.0
2026-05-26 15:21:54.812691,1779823314.812691,-3388792,-3591422,165502041,-62864,-188327,79907,-0.2028362858081055,-0.21496471286804203,9.906131533036195,-0.014533750854492187,-0.043539986274719236,0.018473982398986816,61,06f0fe00,0.0,0.0,0.0,0.0,0.0,0.0
2026-05-26 15:21:54.820266,1779823314.820266,-2625770,-3855619,163124624,-40785,-70529,108194,-0.15716557232971193,-0.23077823526824953,9.763831139829103,-0.009429228630065917,-0.01630584935760498,0.025013754135131835,61,06f0fe00,0.0,0.0,0.0,0.0,0.0,0.0
2026-05-26 15:21:54.822430,1779823314.822430,-2625770,-3855619,163124624,-40785,-70529,108194,-0.15716557232971193,-0.23077823526824953,9.763831139829103,-0.009429228630065917,-0.01630584935760498,0.025013754135131835,61,06f0fe00,0.0,0.0,0.0,0.0,0.0,0.0
2026-05-26 15:21:54.829670,1779823314.829670,-2526163,-3834565,162841787,1972,-104950,107390,-0.15120359121063234,-0.2295180472244263,9.746901919455263,0.0004559136657714844,-0.024263762283325194,0.024827874526977538,61,06f0fe00,0.0,0.0,0.0,0.0,0.0,0.0
2026-05-26 15:21:54.832282,1779823314.832282,-2526163,-3834565,162841787,1972,-104950,107390,-0.15120359121063234,-0.2295180472244263,9.746901919455263,0.0004559136657714844,-0.024263762283325194,0.024827874526977538,61,06f0fe00,0.0,0.0,0.0,0.0,0.0,0.0
2026-05-26 15:21:54.841176,1779823314.841176,-2156546,-3712886,164153259,80760,46391,108933,-0.12908015033508302,-0.22223494562927248,9.825400130446473,0.018671190490722658,0.010725299629211427,0.0251846061630249,61,06f0fe00,0.0,0.0,0.0,0.0,0.0,0.0
2026-05-26 15:21:54.845228,1779823314.845228,-2156546,-3712886,164153259,80760,46391,108933,-0.12908015033508302,-0.22223494562927248,9.825400130446473,0.018671190490722658,0.010725299629211427,0.0251846061630249,61,06f0fe00,0.0,0.0,0.0,0.0,0.0,0.0
2026-05-26 15:21:54.850282,1779823314.850282,-2755283,-3552769,165429039,11465,31957,106487,-0.16491757832000734,-0.21265113594879154,9.901761995296328,0.0026506339645385743,0.00738825203704834,0.024619106758117675,61,06f0fe00,0.0,0.0,0.0,0.0,0.0,0.0
2026-05-26 15:21:54.854347,1779823314.854347,-2755283,-3552769,165429039,11465,31957,106487,-0.16491757832000734,-0.21265113594879154,9.901761995296328,0.0026506339645385743,0.00738825203704834,0.024619106758117675,61,06f0fe00,0.0,0.0,0.0,0.0,0.0,0.0
2026-05-26 15:21:54.859613,1779823314.859613,-2689340,-3724694,164809226,-77916,-229590,85251,-0.16097055731811527,-0.2229417139593506,9.864663062456666,-0.018013676055908204,-0.05307972541809082,0.019709480690002442,61,06f0fe00,0.0,0.0,0.0,0.0,0.0,0.0
2026-05-26 15:21:54.861448,1779823314.861448,-2689340,-3724694,164809226,-77916,-229590,85251,-0.16097055731811527,-0.2229417139593506,9.864663062456666,-0.018013676055908204,-0.05307972541809082,0.019709480690002442,61,06f0fe00,0.0,0.0,0.0,0.0,0.0,0.0
2026-05-26 15:21:54.870579,1779823314.870579,-2655171,-3819058,163353874,-10023,-42151,77327,-0.1589253704049683,-0.22858987509582523,9.777552908093874,-0.0023172528762817383,-0.009745039009094238,0.017877503059387206,61,06f0fe00,0.0,0.0,0.0,0.0,0.0,0.0
2026-05-26 15:21:54.873498,1779823314.873498,-2655171,-3819058,163353874,-10023,-42151,77327,-0.1589253704049683,-0.22858987509582523,9.777552908093874,-0.0023172528762817383,-0.009745039009094238,0.017877503059387206,61,06f0fe00,0.0,0.0,0.0,0.0,0.0,0.0
2026-05-26 15:21:54.880204,1779823314.880204,-2445687,-3885931,163363786,42605,-108190,71243,-0.146386696890564,-0.23259256128631595,9.778146191265261,0.00985000087738037,-0.025012829360961913,0.016470921546936034,61,06f0fe00,0.0,0.0,0.0,0.0,0.0,0.0
2026-05-26 15:21:54.882901,1779823314.882901,-2445687,-3885931,163363786,42605,-108190,71243,-0.146386696890564,-0.23259256128631595,9.778146191265261,0.00985000087738037,-0.025012829360961913,0.016470921546936034,61,06f0fe00,0.0,0.0,0.0,0.0,0.0,0.0
2026-05-26 15:21:54.889510,1779823314.889510,-2765615,-3724326,165058011,-4425,-10939,95972,-0.1655360006088257,-0.22291968730407719,9.879554098957216,-0.0010230314254760743,-0.0025290261611938475,0.022188106658935548,61,06f0fe00,0.0,0.0,0.0,0.0,0.0,0.0
2026-05-26 15:21:54.891730,1779823314.891730,-2765615,-3724326,165058011,-4425,-10939,95972,-0.1655360006088257,-0.22291968730407719,9.879554098957216,-0.0010230314254760743,-0.0025290261611938475,0.022188106658935548,61,06f0fe00,0.0,0.0,0.0,0.0,0.0,0.0
2026-05-26 15:21:54.899669,1779823314.899669,-2684538,-3786542,164966882,-73463,-224275,119368,-0.1606831334088135,-0.2266436285662842,9.874099568880006,-0.016984171211242675,-0.05185093173980713,0.027597110778808595,61,06f0fe00,0.0,0.0,0.0,0.0,0.0,0.0
2026-05-26 15:21:54.901822,1779823314.901822,-2684538,-3786542,164966882,-73463,-224275,119368,-0.1606831334088135,-0.2266436285662842,9.874099568880006,-0.016984171211242675,-0.05185093173980713,0.027597110778808595,61,06f0fe00,0.0,0.0,0.0,0.0,0.0,0.0
2026-05-26 15:21:54.910012,1779823314.910012,-2444213,-3829917,163252896,2681,27969,133252,-0.14629847055938722,-0.22923984099151615,9.771508865712892,0.0006198298873901368,0.006466252189636231,0.03080700192260742,61,06f0fe00,0.0,0.0,0.0,0.0,0.0,0.0
2026-05-26 15:21:54.912441,1779823314.912441,-2444213,-3829917,163252896,2681,27969,133252,-0.14629847055938722,-0.22923984099151615,9.771508865712892,0.0006198298873901368,0.006466252189636231,0.03080700192260742,61,06f0fe00,0.0,0.0,0.0,0.0,0.0,0.0
2026-05-26 15:21:54.920164,1779823314.920164,-2290865,-3888397,163644908,132608,-37471,119107,-0.1371198196548462,-0.23274016381866458,9.79497276024292,0.03065811328125,-0.008663053230285645,0.027536769264221193,61,06f0fe00,0.0,0.0,0.0,0.0,0.0,0.0
2026-05-26 15:21:54.922920,1779823314.922920,-2290865,-3888397,163644908,132608,-37471,119107,-0.1371198196548462,-0.23274016381866458,9.79497276024292,0.03065811328125,-0.008663053230285645,0.027536769264221193,61,06f0fe00,0.0,0.0,0.0,0.0,0.0,0.0
2026-05-26 15:21:54.930140,1779823314.930140,-2706124,-3811384,165081453,143505,226782,94797,-0.16197516433471681,-0.22813054750732426,9.88095722084015,0.03317742931365967,0.052430533950805665,0.021916454246520996,61,06effe00,0.0,0.0,0.0,0.0,0.0,0.0
2026-05-26 15:21:54.933810,1779823314.933810,-2706124,-3811384,165081453,143505,226782,94797,-0.16197516433471681,-0.22813054750732426,9.88095722084015,0.03317742931365967,0.052430533950805665,0.021916454246520996,61,06effe00,0.0,0.0,0.0,0.0,0.0,0.0
2026-05-26 15:21:54.941455,1779823314.941455,-2899127,-3783934,165113160,12650,-179353,60249,-0.17352736691009524,-0.22648752661804203,9.882855044641115,0.0029245983123779296,-0.04146525542449951,0.013929179740905762,61,06effe00,0.0,0.0,0.0,0.0,0.0,0.0
2026-05-26 15:21:54.944502,1779823314.944502,-2899127,-3783934,165113160,12650,-179353,60249,-0.17352736691009524,-0.22648752661804203,9.882855044641115,0.0029245983123779296,-0.04146525542449951,0.013929179740905762,61,06effe00,0.0,0.0,0.0,0.0,0.0,0.0
2026-05-26 15:21:54.950501,1779823314.950501,-2607374,-3912137,163872425,-24125,-3711,65341,-0.15606447898620607,-0.2341611225039673,9.808590799720765,-0.005577544212341309,-0.0008579592361450195,0.015106417259216309,61,06effe00,0.0,0.0,0.0,0.0,0.0,0.0
2026-05-26 15:21:54.954045,1779823314.954045,-2607374,-3912137,163872425,-24125,-3711,65341,-0.15606447898620607,-0.2341611225039673,9.808590799720765,-0.005577544212341309,-0.0008579592361450195,0.015106417259216309,61,06effe00,0.0,0.0,0.0,0.0,0.0,0.0
2026-05-26 15:21:54.960520,1779823314.960520,-2665878,-3829952,163298279,36488,3239,61190,-0.1595662383343506,-0.2292419359179688,9.774225267061464,0.008435789978027344,0.0007488358840942382,0.014146732864379882,61,06effe00,0.0,0.0,0.0,0.0,0.0,0.0
2026-05-26 15:21:54.963837,1779823314.963837,-2665878,-3829952,163298279,36488,3239,61190,-0.1595662383343506,-0.2292419359179688,9.774225267061464,0.008435789978027344,0.0007488358840942382,0.014146732864379882,61,06effe00,0.0,0.0,0.0,0.0,0.0,0.0
2026-05-26 15:21:54.969661,1779823314.969661,-2286399,-3722984,163700837,92046,-47391,77116,-0.13685250703948976,-0.22283936183837894,9.798320392859193,0.021280440811157226,-0.010956493171691895,0.01782872122192383,61,06effe00,0.0,0.0,0.0,0.0,0.0,0.0
2026-05-26 15:21:54.973444,1779823314.973444,-2286399,-3722984,163700837,92046,-47391,77116,-0.13685250703948976,-0.22283936183837894,9.798320392859193,0.021280440811157226,-0.010956493171691895,0.01782872122192383,61,06effe00,0.0,0.0,0.0,0.0,0.0,0.0
2026-05-26 15:21:54.980390,1779823314.980390,-2738709,-3589812,165306808,73514,-42295,112527,-0.1639255408621216,-0.21486834625122073,9.894445853718263,0.01699596208190918,-0.009778330879211426,0.02601551575469971,61,06effe00,0.0,0.0,0.0,0.0,0.0,0.0
2026-05-26 15:21:54.983273,1779823314.983273,-2738709,-3589812,165306808,73514,-42295,112527,-0.1639255408621216,-0.21486834625122073,9.894445853718263,0.01699596208190918,-0.009778330879211426,0.02601551575469971,61,06effe00,0.0,0.0,0.0,0.0,0.0,0.0
2026-05-26 15:21:54.989692,1779823314.989692,-2494081,-3773006,165048019,8722,-222986,107695,-0.14928332176910403,-0.22583343072448733,9.87895602738251,0.0020164700775146486,-0.05155292326354981,0.024898388557434082,61,06effe00,0.0,0.0,0.0,0.0,0.0,0.0
2026-05-26 15:21:54.993401,1779823314.993401,-2494081,-3773006,165048019,8722,-222986,107695,-0.14928332176910403,-0.22583343072448733,9.87895602738251,0.0020164700775146486,-0.05155292326354981,0.024898388557434082,61,06effe00,0.0,0.0,0.0,0.0,0.0,0.0
2026-05-26 15:21:55.000549,1779823315.000549,-2203604,-4017127,163576010,57065,69622,86672,-0.13189680887817384,-0.24044530331146244,9.790848867593386,0.013193059501647949,0.016096156814575196,0.020038006713867188,61,06effe00,0.0,0.0,0.0,0.0,0.0,0.0
2026-05-26 15:21:55.004459,1779823315.004459,-2203604,-4017127,163576010,57065,69622,86672,-0.13189680887817384,-0.24044530331146244,9.790848867593386,0.013193059501647949,0.016096156814575196,0.020038006713867188,61,06effe00,0.0,0.0,0.0,0.0,0.0,0.0
2026-05-26 15:21:55.009708,1779823315.009708,-2377582,-3961442,163039877,98769,7767,57572,-0.14231026928894044,-0.23711227532531742,9.758758604626772,0.022834754997253418,0.0017956802444458009,0.013310274627685546,61,06eefe00,0.0,0.0,0.0,0.0,0.0,0.0
2026-05-26 15:21:55.011944,1779823315.011944,-2377582,-3961442,163039877,98769,7767,57572,-0.14231026928894044,-0.23711227532531742,9.758758604626772,0.022834754997253418,0.0017956802444458009,0.013310274627685546,61,06eefe00,0.0,0.0,0.0,0.0,0.0,0.0
2026-05-26 15:21:55.020468,1779823315.020468,-2739850,-3782799,164796763,207282,302274,50284,-0.16399383546447757,-0.2264195911459351,9.863917089074404,0.04792225987243652,0.0698837968597412,0.01162533609008789,61,06effe00,0.0,0.0,0.0,0.0,0.0,0.0
2026-05-26 15:21:55.023360,1779823315.023360,-2739850,-3782799,164796763,207282,302274,50284,-0.16399383546447757,-0.2264195911459351,9.863917089074404,0.04792225987243652,0.0698837968597412,0.01162533609008789,61,06effe00,0.0,0.0,0.0,0.0,0.0,0.0
2026-05-26 15:21:55.029684,1779823315.029684,-3525903,-3501802,165652381,92090,-82692,54632,-0.2110430704037476,-0.20960050404846195,9.915130139975892,0.021290613327026368,-0.019117856414794923,0.012630565612792969,61,06effe00,0.0,0.0,0.0,0.0,0.0,0.0
2026-05-26 15:21:55.031561,1779823315.031561,-3525903,-3501802,165652381,92090,-82692,54632,-0.2110430704037476,-0.20960050404846195,9.915130139975892,0.021290613327026368,-0.019117856414794923,0.012630565612792969,61,06effe00,0.0,0.0,0.0,0.0,0.0,0.0
2026-05-26 15:21:55.040616,1779823315.040616,-2763365,-3716684,164324344,34325,-219206,73292,-0.16540132676544192,-0.22246227507690433,9.835640430222169,0.00793571834564209,-0.05067901167297363,0.016944637115478514,61,06eefe00,0.0,0.0,0.0,0.0,0.0,0.0
2026-05-26 15:21:55.043181,1779823315.043181,-2763365,-3716684,164324344,34325,-219206,73292,-0.16540132676544192,-0.22246227507690433,9.835640430222169,0.00793571834564209,-0.05067901167297363,0.016944637115478514,61,06eefe00,0.0,0.0,0.0,0.0,0.0,0.0
2026-05-26 15:21:55.049997,1779823315.049997,-2079827,-3700291,162557463,128407,-85275,62905,-0.12448813140594484,-0.22148107138153078,9.729883694634706,0.029686869209289552,-0.019715029335021974,0.014543229789733887,61,06eefe00,0.0,0.0,0.0,0.0,0.0,0.0
2026-05-26 15:21:55.052550,1779823315.052550,-2079827,-3700291,162557463,128407,-85275,62905,-0.12448813140594484,-0.22148107138153078,9.729883694634706,0.029686869209289552,-0.019715029335021974,0.014543229789733887,61,06eefe00,0.0,0.0,0.0,0.0,0.0,0.0
2026-05-26 15:21:55.059490,1779823315.059490,-2414684,-3576546,164769150,179092,330563,70940,-0.14453101103881838,-0.21407430927062993,9.862264311813355,0.04140491390991211,0.0764240309829712,0.016400869903564454,61,06eefe00,0.0,0.0,0.0,0.0,0.0,0.0
2026-05-26 15:21:55.062156,1779823315.062156,-2414684,-3576546,164769150,179092,330563,70940,-0.14453101103881838,-0.21407430927062993,9.862264311813355,0.04140491390991211,0.0764240309829712,0.016400869903564454,61,06eefe00,0.0,0.0,0.0,0.0,0.0,0.0
2026-05-26 15:21:55.070179,1779823315.070179,-3357317,-3494367,166130526,43175,-46525,70556,-0.20095234837677003,-0.2091554818148804,9.943749528795777,0.009981781196594238,-0.010756279563903808,0.016312091583251954,61,06effe00,0.0,0.0,0.0,0.0,0.0,0.0
2026-05-26 15:21:55.073058,1779823315.073058,-3357317,-3494367,166130526,43175,-46525,70556,-0.20095234837677003,-0.2091554818148804,9.943749528795777,0.009981781196594238,-0.010756279563903808,0.016312091583251954,61,06effe00,0.0,0.0,0.0,0.0,0.0,0.0
2026-05-26 15:21:55.079575,1779823315.079575,-3008635,-3844290,164744603,-58969,-170568,75719,-0.18008197279510502,-0.23010013750305178,9.860795050109559,-0.013633252006530762,-0.0394342201538086,0.017505743843078615,61,06effe00,0.0,0.0,0.0,0.0,0.0,0.0
2026-05-26 15:21:55.082241,1779823315.082241,-3008635,-3844290,164744603,-58969,-170568,75719,-0.18008197279510502,-0.23010013750305178,9.860795050109559,-0.013633252006530762,-0.0394342201538086,0.017505743843078615,61,06effe00,0.0,0.0,0.0,0.0,0.0,0.0
2026-05-26 15:21:55.090519,1779823315.090519,-2639369,-3909903,162521284,45779,-150739,67348,-0.15797954103912357,-0.23402740634124758,9.727718199088136,0.010583809181213379,-0.03484988339996338,0.01557042269897461,61,06effe00,0.0,0.0,0.0,0.0,0.0,0.0
2026-05-26 15:21:55.092505,1779823315.092505,-2639369,-3909903,162521284,45779,-150739,67348,-0.15797954103912357,-0.23402740634124758,9.727718199088136,0.010583809181213379,-0.03484988339996338,0.01557042269897461,61,06effe00,0.0,0.0,0.0,0.0,0.0,0.0
2026-05-26 15:21:55.099497,1779823315.099497,-2217599,-3881898,162535379,121374,-144288,69802,-0.132734480184021,-0.2323511659039307,9.728561855898134,0.028060885025024414,-0.03335845385742187,0.016137771652221678,61,06effe00,0.0,0.0,0.0,0.0,0.0,0.0
2026-05-26 15:21:55.102221,1779823315.102221,-2217599,-3881898,162535379,121374,-144288,69802,-0.132734480184021,-0.2323511659039307,9.728561855898134,0.028060885025024414,-0.03335845385742187,0.016137771652221678,61,06effe00,0.0,0.0,0.0,0.0,0.0,0.0
2026-05-26 15:21:55.110463,1779823315.110463,-2710296,-3543793,165624885,137399,134138,68998,-0.16222487956787113,-0.21211387709625248,9.913484365754702,0.03176576154327393,0.031011839401245116,0.015951892044067384,61,06eefe00,0.0,0.0,0.0,0.0,0.0,0.0
2026-05-26 15:21:55.114054,1779823315.114054,-2710296,-3543793,165624885,137399,134138,68998,-0.16222487956787113,-0.21211387709625248,9.913484365754702,0.03176576154327393,0.031011839401245116,0.015951892044067384,61,06eefe00,0.0,0.0,0.0,0.0,0.0,0.0
2026-05-26 15:21:55.120073,1779823315.120073,-2574080,-3634706,165463207,-60179,-262685,74439,-0.15407166523437502,-0.2175554784844971,9.903807122354433,-0.013912996192932129,-0.06073107570648193,0.017209816108703615,61,06eefe00,0.0,0.0,0.0,0.0,0.0,0.0
2026-05-26 15:21:55.122998,1779823315.122998,-2574080,-3634706,165463207,-60179,-262685,74439,-0.15407166523437502,-0.2175554784844971,9.903807122354433,-0.013912996192932129,-0.06073107570648193,0.017209816108703615,61,06eefe00,0.0,0.0,0.0,0.0,0.0,0.0
2026-05-26 15:21:55.129660,1779823315.129660,-2568484,-3684035,163052440,-14215,-64840,80046,-0.15373671642211917,-0.2205080678268433,9.759510563513185,-0.003286416206359863,-0.014990589294433594,0.0185061183013916,61,06eefe00,0.0,0.0,0.0,0.0,0.0,0.0
2026-05-26 15:21:55.132521,1779823315.132521,-2568484,-3684035,163052440,-14215,-64840,80046,-0.15373671642211917,-0.2205080678268433,9.759510563513185,-0.003286416206359863,-0.014990589294433594,0.0185061183013916,61,06eefe00,0.0,0.0,0.0,0.0,0.0,0.0
2026-05-26 15:21:55.140048,1779823315.140048,-2305101,-3763172,162676482,169939,-39764,86221,-0.1379719160256958,-0.2252448162463379,9.737007581819459,0.03928879941558838,-0.00919318002319336,0.019933738426208495,61,06eefe00,0.0,0.0,0.0,0.0,0.0,0.0
2026-05-26 15:21:55.142994,1779823315.142994,-2305101,-3763172,162676482,169939,-39764,86221,-0.1379719160256958,-0.2252448162463379,9.737007581819459,0.03928879941558838,-0.00919318002319336,0.019933738426208495,61,06eefe00,0.0,0.0,0.0,0.0,0.0,0.0
2026-05-26 15:21:55.149859,1779823315.149859,-2324493,-3764836,163803873,249108,214722,90906,-0.13913262499053958,-0.22534441503540042,9.80448761691559,0.057592160980224606,0.049642339828491214,0.021016880172729492,61,06eefe00,0.0,0.0,0.0,0.0,0.0,0.0
2026-05-26 15:21:55.152633,1779823315.152633,-2324493,-3764836,163803873,249108,214722,90906,-0.13913262499053958,-0.22534441503540042,9.80448761691559,0.057592160980224606,0.049642339828491214,0.021016880172729492,61,06eefe00,0.0,0.0,0.0,0.0,0.0,0.0
2026-05-26 15:21:55.160259,1779823315.160259,-3125576,-3508614,165848474,134696,136477,98968,-0.18708148120361331,-0.21000823659118656,9.926867294629519,0.03114084539794922,0.03155260109710693,0.022880762512207033,61,06eefe00,0.0,0.0,0.0,0.0,0.0,0.0
2026-05-26 15:21:55.163229,1779823315.163229,-3125576,-3508614,165848474,134696,136477,98968,-0.18708148120361331,-0.21000823659118656,9.926867294629519,0.03114084539794922,0.03155260109710693,0.022880762512207033,61,06eefe00,0.0,0.0,0.0,0.0,0.0,0.0
2026-05-26 15:21:55.169841,1779823315.169841,-2782275,-3655264,165339602,-55384,-211274,110448,-0.1665331856002808,-0.2187859784277344,9.896408739949342,-0.012804423156738281,-0.048845184494018555,0.025534864379882814,61,06eefe00,0.0,0.0,0.0,0.0,0.0,0.0
2026-05-26 15:21:55.173378,1779823315.173378,-2782275,-3655264,165339602,-55384,-211274,110448,-0.1665331856002808,-0.2187859784277344,9.896408739949342,-0.012804423156738281,-0.048845184494018555,0.025534864379882814,61,06eefe00,0.0,0.0,0.0,0.0,0.0,0.0
2026-05-26 15:21:55.179826,1779823315.179826,-2614978,-3605478,162502891,39197,-149524,105170,-0.15651961672180179,-0.21580603533142093,9.726617285309755,0.009062093284606934,-0.03456898324584961,0.0243146248626709,61,06eefe00,0.0,0.0,0.0,0.0,0.0,0.0
2026-05-26 15:21:55.184938,1779823315.184938,-2614978,-3605478,162502891,39197,-149524,105170,-0.15651961672180179,-0.21580603533142093,9.726617285309755,0.009062093284606934,-0.03456898324584961,0.0243146248626709,61,06eefe00,0.0,0.0,0.0,0.0,0.0,0.0
2026-05-26 15:21:55.191187,1779823315.191187,-2175515,-3627096,164163828,218420,164881,79678,-0.13021554061737062,-0.21709998161865238,9.826032738380128,0.05049729354858398,0.03811942247772217,0.01842103907775879,61,06eefe00,0.0,0.0,0.0,0.0,0.0,0.0
2026-05-26 15:21:55.196200,1779823315.196200,-2175515,-3627096,164163828,218420,164881,79678,-0.13021554061737062,-0.21709998161865238,9.826032738380128,0.05049729354858398,0.03811942247772217,0.01842103907775879,61,06eefe00,0.0,0.0,0.0,0.0,0.0,0.0
2026-05-26 15:21:55.200573,1779823315.200573,-2499205,-3520234,165113226,187416,243462,81247,-0.14959001900177005,-0.21070375217346193,9.882858995073853,0.04332936895751953,0.05628684223937988,0.018783781745910645,61,06eefe00,0.0,0.0,0.0,0.0,0.0,0.0
2026-05-26 15:21:55.206291,1779823315.206291,-2499205,-3520234,165113226,187416,243462,81247,-0.14959001900177005,-0.21070375217346193,9.882858995073853,0.04332936895751953,0.05628684223937988,0.018783781745910645,61,06eefe00,0.0,0.0,0.0,0.0,0.0,0.0
2026-05-26 15:21:55.209554,1779823315.209554,-2205330,-3729038,164507574,-97274,-132706,73205,-0.1320001186798096,-0.22320172425964357,9.84660766947693,-0.022489120651245118,-0.030680770248413085,0.016924523277282714,61,06eefe00,0.0,0.0,0.0,0.0,0.0,0.0
2026-05-26 15:21:55.211654,1779823315.211654,-2205330,-3729038,164507574,-97274,-132706,73205,-0.1320001186798096,-0.22320172425964357,9.84660766947693,-0.022489120651245118,-0.030680770248413085,0.016924523277282714,61,06eefe00,0.0,0.0,0.0,0.0,0.0,0.0
2026-05-26 15:21:55.219918,1779823315.219918,-2737554,-3726618,162707619,-62114,114074,92496,-0.1638564082891846,-0.22305687505920413,9.738871288246767,-0.014360355697631836,0.026373172164916994,0.02138447790527344,61,06eefe00,0.0,0.0,0.0,0.0,0.0,0.0
2026-05-26 15:21:55.222395,1779823315.222395,-2737554,-3726618,162707619,-62114,114074,92496,-0.1638564082891846,-0.22305687505920413,9.738871288246767,-0.014360355697631836,0.026373172164916994,0.02138447790527344,61,06eefe00,0.0,0.0,0.0,0.0,0.0,0.0
2026-05-26 15:21:55.229716,1779823315.229716,-2617903,-3776504,163874247,68188,58359,86651,-0.15669469271820072,-0.226042803659668,9.808699855606386,0.015764625274658203,0.013492223945617676,0.020033151649475098,61,06eefe00,0.0,0.0,0.0,0.0,0.0,0.0
2026-05-26 15:21:55.231668,1779823315.231668,-2617903,-3776504,163874247,68188,58359,86651,-0.15669469271820072,-0.226042803659668,9.808699855606386,0.015764625274658203,0.013492223945617676,0.020033151649475098,61,06eefe00,0.0,0.0,0.0,0.0,0.0,0.0
2026-05-26 15:21:55.240405,1779823315.240405,-3077025,-3630958,165666773,67832,157303,99183,-0.18417545908355715,-0.21733114178894047,9.915991573733217,0.015682320373535157,0.03636743781280517,0.022930469123840332,61,06edfe00,0.0,0.0,0.0,0.0,0.0,0.0
2026-05-26 15:21:55.242363,1779823315.242363,-3077025,-3630958,165666773,67832,157303,99183,-0.18417545908355715,-0.21733114178894047,9.915991573733217,0.015682320373535157,0.03636743781280517,0.022930469123840332,61,06edfe00,0.0,0.0,0.0,0.0,0.0,0.0
2026-05-26 15:21:55.249477,1779823315.249477,-3044763,-3614071,165610019,-42876,-197875,77756,-0.18224441573455813,-0.216320369703064,9.912594560707705,-0.009912654327392578,-0.04574742221832275,0.01797668508911133,61,06edfe00,0.0,0.0,0.0,0.0,0.0,0.0
2026-05-26 15:21:55.251758,1779823315.251758,-3044763,-3614071,165610019,-42876,-197875,77756,-0.18224441573455813,-0.216320369703064,9.912594560707705,-0.009912654327392578,-0.04574742221832275,0.01797668508911133,61,06edfe00,0.0,0.0,0.0,0.0,0.0,0.0
2026-05-26 15:21:55.259206,1779823315.259206,-2065785,-3891071,163871809,-127423,-190617,92818,-0.12364764691314699,-0.23290021619964604,9.808553929015199,-0.02945937476348877,-0.04406941948699951,0.021458922225952148,61,06edfe00,0.0,0.0,0.0,0.0,0.0,0.0
2026-05-26 15:21:55.260956,1779823315.260956,-2065785,-3891071,163871809,-127423,-190617,92818,-0.12364764691314699,-0.23290021619964604,9.808553929015199,-0.02945937476348877,-0.04406941948699951,0.021458922225952148,61,06edfe00,0.0,0.0,0.0,0.0,0.0,0.0
2026-05-26 15:21:55.270423,1779823315.270423,-2400416,-3792769,162433756,12097,65233,73823,-0.14367699930664066,-0.22701634590972902,9.722479207015382,0.0027967482833862307,0.015081448356628419,0.017067400886535643,61,06edfe00,0.0,0.0,0.0,0.0,0.0,0.0
2026-05-26 15:21:55.273222,1779823315.273222,-2400416,-3792769,162433756,12097,65233,73823,-0.14367699930664066,-0.22701634590972902,9.722479207015382,0.0027967482833862307,0.015081448356628419,0.017067400886535643,61,06edfe00,0.0,0.0,0.0,0.0,0.0,0.0
2026-05-26 15:21:55.279210,1779823315.279210,-2951235,-3770052,165634417,179970,327652,66530,-0.1766462934127808,-0.2256566189318848,9.914054904010316,0.04160790184020996,0.07575102658081055,0.015381306381225587,61,06edfe00,0.0,0.0,0.0,0.0,0.0,0.0
2026-05-26 15:21:55.280566,1779823315.280566,-2951235,-3770052,165634417,179970,327652,66530,-0.1766462934127808,-0.2256566189318848,9.914054904010316,0.04160790184020996,0.07575102658081055,0.015381306381225587,61,06edfe00,0.0,0.0,0.0,0.0,0.0,0.0
2026-05-26 15:21:55.290005,1779823315.290005,-3485016,-3714459,165678676,12250,-206885,47312,-0.20859577732177736,-0.22232909760955813,9.916704028292237,0.002832120895385742,-0.047830476036071774,0.010938228881835937,61,06edfe00,0.0,0.0,0.0,0.0,0.0,0.0
2026-05-26 15:21:55.293526,1779823315.293526,-3485016,-3714459,165678676,12250,-206885,47312,-0.20859577732177736,-0.22232909760955813,9.916704028292237,0.002832120895385742,-0.047830476036071774,0.010938228881835937,61,06edfe00,0.0,0.0,0.0,0.0,0.0,0.0
2026-05-26 15:21:55.299428,1779823315.299428,-2962291,-3870129,164737267,-56059,-353757,38516,-0.17730805075164796,-0.23164673192047122,9.860355953525087,-0.012960478797912598,-0.08178633400726318,0.008904650482177734,61,06edfe00,0.0,0.0,0.0,0.0,0.0,0.0
2026-05-26 15:21:55.301962,1779823315.301962,-2962291,-3870129,164737267,-56059,-353757,38516,-0.17730805075164796,-0.23164673192047122,9.860355953525087,-0.012960478797912598,-0.08178633400726318,0.008904650482177734,61,06edfe00,0.0,0.0,0.0,0.0,0.0,0.0
2026-05-26 15:21:55.310164,1779823315.310164,-2463414,-3866387,162580400,20216,8605,60059,-0.14744774721130374,-0.2314227543551636,9.731256589721681,0.004673808654785156,0.0019894204330444336,0.013885252967834473,61,06edfe00,0.0,0.0,0.0,0.0,0.0,0.0
2026-05-26 15:21:55.312248,1779823315.312248,-2463414,-3866387,162580400,20216,8605,60059,-0.14744774721130374,-0.2314227543551636,9.731256589721681,0.004673808654785156,0.0019894204330444336,0.013885252967834473,61,06edfe00,0.0,0.0,0.0,0.0,0.0,0.0
2026-05-26 15:21:55.319803,1779823315.319803,-2200709,-3715705,163317351,101949,-56738,43168,-0.13172352853302005,-0.222403676991272,9.775366822413027,0.02356995046234131,-0.013117459213256836,0.009980162841796874,61,06edfe00,0.0,0.0,0.0,0.0,0.0,0.0
2026-05-26 15:21:55.322389,1779823315.322389,-2200709,-3715705,163317351,101949,-56738,43168,-0.13172352853302005,-0.222403676991272,9.775366822413027,0.02356995046234131,-0.013117459213256836,0.009980162841796874,61,06edfe00,0.0,0.0,0.0,0.0,0.0,0.0
2026-05-26 15:21:55.329146,1779823315.329146,-2509461,-3566177,165845327,132289,260510,70699,-0.1502038923074341,-0.2134536723452759,9.926678930813905,0.030584362541198732,0.06022822975158691,0.016345152259826662,61,06edfe00,0.0,0.0,0.0,0.0,0.0,0.0
2026-05-26 15:21:55.330785,1779823315.330785,-2509461,-3566177,165845327,132289,260510,70699,-0.1502038923074341,-0.2134536723452759,9.926678930813905,0.030584362541198732,0.06022822975158691,0.016345152259826662,61,06edfe00,0.0,0.0,0.0,0.0,0.0,0.0
2026-05-26 15:21:55.344373,1779823315.344373,-2316390,-3837064,164412508,-82389,-311270,55261,-0.1386476195892334,-0.22966762497314455,9.84091749010132,-0.01904780477142334,-0.07196361396789551,0.012775986351013183,61,06edfe00,0.0,0.0,0.0,0.0,0.0,0.0
2026-05-26 15:21:55.351471,1779823315.351471,-2316390,-3837064,164412508,-82389,-311270,55261,-0.1386476195892334,-0.22966762497314455,9.84091749010132,-0.01904780477142334,-0.07196361396789551,0.012775986351013183,61,06edfe00,0.0,0.0,0.0,0.0,0.0,0.0
2026-05-26 15:21:55.356676,1779823315.356676,-2143238,-3973836,163178630,6227,-23630,63738,-0.12828359944274903,-0.23785411870971684,9.767063671200562,0.0014396421890258788,-0.0054631034088134765,0.014735814010620117,61,06edfe00,0.0,0.0,0.0,0.0,0.0,0.0
2026-05-26 15:21:55.359046,1779823315.359046,-2143238,-3973836,163178630,6227,-23630,63738,-0.12828359944274903,-0.23785411870971684,9.767063671200562,0.0014396421890258788,-0.0054631034088134765,0.014735814010620117,61,06edfe00,0.0,0.0,0.0,0.0,0.0,0.0
2026-05-26 15:21:55.379341,1779823315.379341,-2364948,-3951520,162383933,124122,1635,28259,-0.1415540606945801,-0.23651839360351565,9.719497049282532,0.028696204879760743,0.0003780014419555664,0.006533298316955567,61,06edfe00,0.0,0.0,0.0,0.0,0.0,0.0
2026-05-26 15:21:55.381046,1779823315.381046,-2364948,-3951520,162383933,124122,1635,28259,-0.1415540606945801,-0.23651839360351565,9.719497049282532,0.028696204879760743,0.0003780014419555664,0.006533298316955567,61,06edfe00,0.0,0.0,0.0,0.0,0.0,0.0
2026-05-26 15:21:55.383738,1779823315.383738,-2342289,-4047126,165006942,242649,285877,57294,-0.14019780530914308,-0.24224089470153812,9.876497361842652,0.05609888188934326,0.06609291634368897,0.013246002822875977,61,06ecfe00,0.0,0.0,0.0,0.0,0.0,0.0
2026-05-26 15:21:55.386299,1779823315.386299,-2342289,-4047126,165006942,242649,285877,57294,-0.14019780530914308,-0.24224089470153812,9.876497361842652,0.05609888188934326,0.06609291634368897,0.013246002822875977,61,06ecfe00,0.0,0.0,0.0,0.0,0.0,0.0
2026-05-26 15:21:55.458075,1779823315.458075,-3139578,-3822959,165437907,-64706,-323950,41724,-0.187919571494751,-0.22882336961273197,9.902292789804383,-0.014959609359741211,-0.07489514808654785,0.009646319366455079,61,06ecfe00,0.0,0.0,0.0,0.0,0.0,0.0
2026-05-26 15:21:55.459934,1779823315.459934,-3139578,-3822959,165437907,-64706,-323950,41724,-0.187919571494751,-0.22882336961273197,9.902292789804383,-0.014959609359741211,-0.07489514808654785,0.009646319366455079,61,06ecfe00,0.0,0.0,0.0,0.0,0.0,0.0
2026-05-26 15:21:55.461773,1779823315.461773,-2675599,-3807707,163198183,-17029,-9564,65799,-0.1601480891928101,-0.2279104605197144,9.768234016827089,-0.003936994834899903,-0.0022111350402832033,0.015212303901672363,61,06ecfe00,0.0,0.0,0.0,0.0,0.0,0.0
2026-05-26 15:21:55.463536,1779823315.463536,-2675599,-3807707,163198183,-17029,-9564,65799,-0.1601480891928101,-0.2279104605197144,9.768234016827089,-0.003936994834899903,-0.0022111350402832033,0.015212303901672363,61,06ecfe00,0.0,0.0,0.0,0.0,0.0,0.0
2026-05-26 15:21:55.464482,1779823315.464482,-2568466,-3577043,162642146,95742,-108507,60502,-0.15373563903137208,-0.21410405722625736,9.73495239911438,0.02213493214416504,-0.025086117713928224,0.01398767170715332,61,06ecfe00,0.0,0.0,0.0,0.0,0.0,0.0
2026-05-26 15:21:55.466134,1779823315.466134,-2568466,-3577043,162642146,95742,-108507,60502,-0.15373563903137208,-0.21410405722625736,9.73495239911438,0.02213493214416504,-0.025086117713928224,0.01398767170715332,61,06ecfe00,0.0,0.0,0.0,0.0,0.0,0.0
2026-05-26 15:21:55.468323,1779823315.468323,-2211792,-3600901,163761605,155893,17678,80903,-0.13238690195800784,-0.21553207880645756,9.801957664021304,0.036041454917907716,0.004087039443969726,0.018704251167297365,61,06edfe00,0.0,0.0,0.0,0.0,0.0,0.0
2026-05-26 15:21:55.469785,1779823315.469785,-2211792,-3600901,163761605,155893,17678,80903,-0.13238690195800784,-0.21553207880645756,9.801957664021304,0.036041454917907716,0.004087039443969726,0.018704251167297365,61,06edfe00,0.0,0.0,0.0,0.0,0.0,0.0
2026-05-26 15:21:55.470699,1779823315.470699,-3081998,-3630077,165695988,-17698,-124128,121283,-0.18447311820495607,-0.2172784094973755,9.917740238770753,-0.004091663314819336,-0.028697592041015626,0.028039846412658692,61,06ecfe00,0.0,0.0,0.0,0.0,0.0,0.0
2026-05-26 15:21:55.472220,1779823315.472220,-3081998,-3630077,165695988,-17698,-124128,121283,-0.18447311820495607,-0.2172784094973755,9.917740238770753,-0.004091663314819336,-0.028697592041015626,0.028039846412658692,61,06ecfe00,0.0,0.0,0.0,0.0,0.0,0.0
2026-05-26 15:21:55.473729,1779823315.473729,-2782719,-3849055,165174856,-111059,-295678,103670,-0.16655976123870853,-0.2303853467758179,9.88654786128174,-0.02567612363433838,-0.06835884425354004,0.023967834548950195,61,06ecfe00,0.0,0.0,0.0,0.0,0.0,0.0
2026-05-26 15:21:55.475114,1779823315.475114,-2782719,-3849055,165174856,-111059,-295678,103670,-0.16655976123870853,-0.2303853467758179,9.88654786128174,-0.02567612363433838,-0.06835884425354004,0.023967834548950195,61,06ecfe00,0.0,0.0,0.0,0.0,0.0,0.0
2026-05-26 15:21:55.476115,1779823315.476115,-2709615,-4074365,163071974,2468,61770,112612,-0.16218411828460697,-0.24387128617706302,9.760679771893923,0.0005705856628417968,0.014280825119018554,0.026035167205810547,61,06ecfe00,0.0,0.0,0.0,0.0,0.0,0.0
2026-05-26 15:21:55.478626,1779823315.478626,-2709615,-4074365,163071974,2468,61770,112612,-0.16218411828460697,-0.24387128617706302,9.760679771893923,0.0005705856628417968,0.014280825119018554,0.026035167205810547,61,06ecfe00,0.0,0.0,0.0,0.0,0.0,0.0
2026-05-26 15:21:55.480994,1779823315.480994,-2264412,-4025147,164207001,143653,61305,77056,-0.13553647424194337,-0.24092534074432376,9.828616860086976,0.033211645957946775,0.014173320121765138,0.017814849609375,61,06ecfe00,0.0,0.0,0.0,0.0,0.0,0.0
2026-05-26 15:21:55.483207,1779823315.483207,-2264412,-4025147,164207001,143653,61305,77056,-0.13553647424194337,-0.24092534074432376,9.828616860086976,0.033211645957946775,0.014173320121765138,0.017814849609375,61,06ecfe00,0.0,0.0,0.0,0.0,0.0,0.0
2026-05-26 15:21:55.484318,1779823315.484318,-2460100,-3809123,165152963,175942,247995,97937,-0.14724938760375977,-0.22799521525848393,9.885237454858094,0.040676654251098635,0.057334842567443846,0.02264240196990967,61,06ecfe00,0.0,0.0,0.0,0.0,0.0,0.0
2026-05-26 15:21:55.485911,1779823315.485911,-2460100,-3809123,165152963,175942,247995,97937,-0.14724938760375977,-0.22799521525848393,9.885237454858094,0.040676654251098635,0.057334842567443846,0.02264240196990967,61,06ecfe00,0.0,0.0,0.0,0.0,0.0,0.0
2026-05-26 15:21:55.488497,1779823315.488497,-2143768,-3668289,164747486,-71842,-297890,105080,-0.12831532261474612,-0.2195655903433228,9.860967612194216,-0.016609406478881837,-0.06887024436950684,0.024293817443847655,61,06ecfe00,0.0,0.0,0.0,0.0,0.0,0.0
2026-05-26 15:21:55.489979,1779823315.489979,-2143768,-3668289,164747486,-71842,-297890,105080,-0.12831532261474612,-0.2195655903433228,9.860967612194216,-0.016609406478881837,-0.06887024436950684,0.024293817443847655,61,06ecfe00,0.0,0.0,0.0,0.0,0.0,0.0
2026-05-26 15:21:55.490893,1779823315.490893,-2006533,-3733508,163648077,-22570,-31026,114847,-0.12010111599395754,-0.22346927629516605,9.795162440869447,-0.00521803825378418,-0.0071730108489990235,0.026551884773254396,61,06ecfe00,0.0,0.0,0.0,0.0,0.0,0.0
2026-05-26 15:21:55.492449,1779823315.492449,-2006533,-3733508,163648077,-22570,-31026,114847,-0.12010111599395754,-0.22346927629516605,9.795162440869447,-0.00521803825378418,-0.0071730108489990235,0.026551884773254396,61,06ecfe00,0.0,0.0,0.0,0.0,0.0,0.0
2026-05-26 15:21:55.493380,1779823315.493380,-2441683,-3555009,162417817,92133,25651,100445,-0.14614703730438233,-0.21278521124176028,9.721525177508852,0.02130055464935303,0.0059303455581665035,0.023222235374450683,61,06ecfe00,0.0,0.0,0.0,0.0,0.0,0.0
2026-05-26 15:21:55.494923,1779823315.494923,-2441683,-3555009,162417817,92133,25651,100445,-0.14614703730438233,-0.21278521124176028,9.721525177508852,0.02130055464935303,0.0059303455581665035,0.023222235374450683,61,06ecfe00,0.0,0.0,0.0,0.0,0.0,0.0
2026-05-26 15:21:55.499241,1779823315.499241,-2599320,-3639805,164600278,250953,269312,84066,-0.1555824064819336,-0.21786067934112552,9.852156471244509,0.058018713066101076,0.0622631953125,0.019435516342163086,61,06ecfe00,0.0,0.0,0.0,0.0,0.0,0.0
2026-05-26 15:21:55.500814,1779823315.500814,-2599320,-3639805,164600278,250953,269312,84066,-0.1555824064819336,-0.21786067934112552,9.852156471244509,0.058018713066101076,0.0622631953125,0.019435516342163086,61,06ecfe00,0.0,0.0,0.0,0.0,0.0,0.0
2026-05-26 15:21:55.509160,1779823315.509160,-3633024,-3552330,166121171,147988,5903,73961,-0.21745480230468753,-0.2126248595855713,9.943189584882509,0.03421386996459961,0.0013647354812622071,0.01709930559539795,61,06ecfe00,0.0,0.0,0.0,0.0,0.0,0.0
2026-05-26 15:21:55.510482,1779823315.510482,-3633024,-3552330,166121171,147988,5903,73961,-0.21745480230468753,-0.2126248595855713,9.943189584882509,0.03421386996459961,0.0013647354812622071,0.01709930559539795,61,06ecfe00,0.0,0.0,0.0,0.0,0.0,0.0
2026-05-26 15:21:55.519175,1779823315.519175,-2628900,-4094139,163592274,35711,-122513,83556,-0.15735291860961917,-0.24505485976776126,9.791822349988404,0.00825615259552002,-0.028324214469909667,0.019317607635498047,61,06ecfe00,0.0,0.0,0.0,0.0,0.0,0.0
2026-05-26 15:21:55.520641,1779823315.520641,-2628900,-4094139,163592274,35711,-122513,83556,-0.15735291860961917,-0.24505485976776126,9.791822349988404,0.00825615259552002,-0.028324214469909667,0.019317607635498047,61,06ecfe00,0.0,0.0,0.0,0.0,0.0,0.0
2026-05-26 15:21:55.529550,1779823315.529550,-2140910,-3932292,162349899,67375,-120270,71363,-0.12814425690612793,-0.23536750086547856,9.717459942799989,0.015576664924621583,-0.027805647354125978,0.01649866477203369,61,06ecfe00,0.0,0.0,0.0,0.0,0.0,0.0
2026-05-26 15:21:55.531281,1779823315.531281,-2140910,-3932292,162349899,67375,-120270,71363,-0.12814425690612793,-0.23536750086547856,9.717459942799989,0.015576664924621583,-0.027805647354125978,0.01649866477203369,61,06ecfe00,0.0,0.0,0.0,0.0,0.0,0.0
2026-05-26 15:21:55.539361,1779823315.539361,-2052501,-3657760,164410054,171976,309033,98817,-0.1228525325418091,-0.21893537661132817,9.84077060582947,0.03975974066162109,0.0714464340133667,0.02284585228729248,61,06ecfe00,0.0,0.0,0.0,0.0,0.0,0.0
2026-05-26 15:21:55.541088,1779823315.541088,-2052501,-3657760,164410054,171976,309033,98817,-0.1228525325418091,-0.21893537661132817,9.84077060582947,0.03975974066162109,0.0714464340133667,0.02284585228729248,61,06ecfe00,0.0,0.0,0.0,0.0,0.0,0.0
2026-05-26 15:21:55.549337,1779823315.549337,-3016713,-3283902,165929664,33423,1972,90216,-0.18056548182037357,-0.19655809050476078,9.93172692544922,0.007727181770324707,0.0004559136657714844,0.020857356628417967,61,06ecfe00,0.0,0.0,0.0,0.0,0.0,0.0
2026-05-26 15:21:55.552276,1779823315.552276,-3016713,-3283902,165929664,33423,1972,90216,-0.18056548182037357,-0.19655809050476078,9.93172692544922,0.007727181770324707,0.0004559136657714844,0.020857356628417967,61,06ecfe00,0.0,0.0,0.0,0.0,0.0,0.0
2026-05-26 15:21:55.559863,1779823315.559863,-2868433,-3376622,165759619,-19586,-235694,88993,-0.17169017626617433,-0.20210784995300296,9.921548874916688,-0.004528156723022461,-0.0544909308013916,0.020574606925964356,61,06ecfe00,0.0,0.0,0.0,0.0,0.0,0.0
2026-05-26 15:21:55.561990,1779823315.561990,-2868433,-3376622,165759619,-19586,-235694,88993,-0.17169017626617433,-0.20210784995300296,9.921548874916688,-0.004528156723022461,-0.0544909308013916,0.020574606925964356,61,06ecfe00,0.0,0.0,0.0,0.0,0.0,0.0
2026-05-26 15:21:55.570132,1779823315.570132,-2644974,-3764275,162435257,24565,-54858,63412,-0.15831502854675295,-0.22531083635711674,9.72256904943268,0.005679269371032715,-0.012682815353393554,0.014660444915771485,61,06ebfe00,0.0,0.0,0.0,0.0,0.0,0.0
2026-05-26 15:21:55.571963,1779823315.571963,-2644974,-3764275,162435257,24565,-54858,63412,-0.15831502854675295,-0.22531083635711674,9.72256904943268,0.005679269371032715,-0.012682815353393554,0.014660444915771485,61,06ebfe00,0.0,0.0,0.0,0.0,0.0,0.0
2026-05-26 15:21:55.579243,1779823315.579243,-2442880,-3800066,162478238,116864,-77345,50902,-0.14621868378906253,-0.22745310814758304,9.725141678971559,0.0270182021484375,-0.017881664543151855,0.011768213699340821,61,06ebfe00,0.0,0.0,0.0,0.0,0.0,0.0
2026-05-26 15:21:55.580704,1779823315.580704,-2442880,-3800066,162478238,116864,-77345,50902,-0.14621868378906253,-0.22745310814758304,9.725141678971559,0.0270182021484375,-0.017881664543151855,0.011768213699340821,61,06ebfe00,0.0,0.0,0.0,0.0,0.0,0.0
2026-05-26 15:21:55.589630,1779823315.589630,-2543283,-3718562,164628787,144205,235679,87882,-0.15222830952117922,-0.22257468284484866,9.853862878622744,0.033339264793395995,0.054487462898254395,0.020317750900268553,61,06ecfe00,0.0,0.0,0.0,0.0,0.0,0.0
2026-05-26 15:21:55.592074,1779823315.592074,-2543283,-3718562,164628787,144205,235679,87882,-0.15222830952117922,-0.22257468284484866,9.853862878622744,0.033339264793395995,0.054487462898254395,0.020317750900268553,61,06ecfe00,0.0,0.0,0.0,0.0,0.0,0.0
2026-05-26 15:21:55.599346,1779823315.599346,-2985019,-3663120,165630504,-118495,-228045,124058,-0.17866843613494876,-0.2192561996337891,9.913820691232912,-0.027395278816223143,-0.0527225313949585,0.02868140849304199,61,06ebfe00,0.0,0.0,0.0,0.0,0.0,0.0
2026-05-26 15:21:55.601527,1779823315.601527,-2985019,-3663120,165630504,-118495,-228045,124058,-0.17866843613494876,-0.2192561996337891,9.913820691232912,-0.027395278816223143,-0.0527225313949585,0.02868140849304199,61,06ebfe00,0.0,0.0,0.0,0.0,0.0,0.0
2026-05-26 15:21:55.609423,1779823315.609423,-2688009,-3798285,164614488,-140850,-227329,139285,-0.16089089025787356,-0.22734650631866457,9.853007011384278,-0.032563610458374026,-0.05255699681854248,0.03220179256439209,61,06ecfe00,0.0,0.0,0.0,0.0,0.0,0.0
2026-05-26 15:21:55.610860,1779823315.610860,-2688009,-3798285,164614488,-140850,-227329,139285,-0.16089089025787356,-0.22734650631866457,9.853007011384278,-0.032563610458374026,-0.05255699681854248,0.03220179256439209,61,06ecfe00,0.0,0.0,0.0,0.0,0.0,0.0
2026-05-26 15:21:55.619674,1779823315.619674,-2382741,-3858312,162678923,-13930,-62131,112655,-0.1426190614480591,-0.23093942489501956,9.73715368797577,-0.0032205260467529297,-0.014364285987854004,0.02604510852813721,61,06ebfe00,0.0,0.0,0.0,0.0,0.0,0.0
2026-05-26 15:21:55.621362,1779823315.621362,-2382741,-3858312,162678923,-13930,-62131,112655,-0.1426190614480591,-0.23093942489501956,9.73715368797577,-0.0032205260467529297,-0.014364285987854004,0.02604510852813721,61,06ebfe00,0.0,0.0,0.0,0.0,0.0,0.0
2026-05-26 15:21:55.629090,1779823315.629090,-2075718,-3824807,163614254,193205,64694,78850,-0.1242421870404053,-0.2289339817294312,9.79313796380066,0.04466774837493896,0.014956835037231445,0.01822961082458496,61,06ebfe00,0.0,0.0,0.0,0.0,0.0,0.0
2026-05-26 15:21:55.630357,1779823315.630357,-2075718,-3824807,163614254,193205,64694,78850,-0.1242421870404053,-0.2289339817294312,9.79313796380066,0.04466774837493896,0.014956835037231445,0.01822961082458496,61,06ebfe00,0.0,0.0,0.0,0.0,0.0,0.0
2026-05-26 15:21:55.639668,1779823315.639668,-2735101,-3746894,165779115,137906,167749,64942,-0.16370958387237552,-0.22427049588073733,9.92271580880585,0.03188297666931152,0.03878248555755615,0.015014171035766601,61,06ebfe00,0.0,0.0,0.0,0.0,0.0,0.0
2026-05-26 15:21:55.641479,1779823315.641479,-2735101,-3746894,165779115,137906,167749,64942,-0.16370958387237552,-0.22427049588073733,9.92271580880585,0.03188297666931152,0.03878248555755615,0.015014171035766601,61,06ebfe00,0.0,0.0,0.0,0.0,0.0,0.0
2026-05-26 15:21:55.649308,1779823315.649308,-2835901,-3865869,165337913,-62124,-228624,50950,-0.16974297205596925,-0.23139174944366458,9.896307644784242,-0.014362667633056641,-0.05285639245605469,0.011779310989379883,61,06ebfe00,0.0,0.0,0.0,0.0,0.0,0.0
2026-05-26 15:21:55.651314,1779823315.651314,-2835901,-3865869,165337913,-62124,-228624,50950,-0.16974297205596925,-0.23139174944366458,9.896307644784242,-0.014362667633056641,-0.05285639245605469,0.011779310989379883,61,06ebfe00,0.0,0.0,0.0,0.0,0.0,0.0
2026-05-26 15:21:55.659650,1779823315.659650,-2835901,-3865869,165337913,-62124,-228624,50950,-0.16974297205596925,-0.23139174944366458,9.896307644784242,-0.014362667633056641,-0.05285639245605469,0.011779310989379883,61,06ebfe00,0.0,0.0,0.0,0.0,0.0,0.0
2026-05-26 15:21:55.660553,1779823315.660553,-2603656,-3856041,162464568,12696,-26529,80635,-0.15584193794189455,-0.2308034940957642,9.724323460554201,0.002935233215332031,-0.006133333488464355,0.0186422912979126,61,06ebfe00,0.0,0.0,0.0,0.0,0.0,0.0
2026-05-26 15:21:55.669803,1779823315.669803,-2276473,-3642019,163734649,184616,79380,89128,-0.13625838589752198,-0.21799319840301518,9.800344211522523,0.04268202703857422,0.01835214340209961,0.02060581805419922,61,06ebfe00,0.0,0.0,0.0,0.0,0.0,0.0
2026-05-26 15:21:55.671914,1779823315.671914,-2276473,-3642019,163734649,184616,79380,89128,-0.13625838589752198,-0.21799319840301518,9.800344211522523,0.04268202703857422,0.01835214340209961,0.02060581805419922,61,06ebfe00,0.0,0.0,0.0,0.0,0.0,0.0
2026-05-26 15:21:55.679210,1779823315.679210,-2699776,-3468226,165681589,140175,115395,123873,-0.16159520453125004,-0.20759081117492678,9.916878386028138,0.03240755481719971,0.02667857883453369,0.028638637687683106,61,06ebfe00,0.0,0.0,0.0,0.0,0.0,0.0
2026-05-26 15:21:55.680594,1779823315.680594,-2699776,-3468226,165681589,140175,115395,123873,-0.16159520453125004,-0.20759081117492678,9.916878386028138,0.03240755481719971,0.02667857883453369,0.028638637687683106,61,06ebfe00,0.0,0.0,0.0,0.0,0.0,0.0
2026-05-26 15:21:55.689628,1779823315.689628,-2398547,-3661714,164934739,-30797,-254432,122050,-0.14356513023406983,-0.2191720434454346,9.872175648280946,-0.007120067527770996,-0.058823035400390626,0.02821717185974121,61,06ebfe00,0.0,0.0,0.0,0.0,0.0,0.0
2026-05-26 15:21:55.693835,1779823315.693835,-2398547,-3661714,164934739,-30797,-254432,122050,-0.14356513023406983,-0.2191720434454346,9.872175648280946,-0.007120067527770996,-0.058823035400390626,0.02821717185974121,61,06ebfe00,0.0,0.0,0.0,0.0,0.0,0.0
2026-05-26 15:21:55.700633,1779823315.700633,-2350518,-3853430,162833810,23404,91841,109127,-0.14069035244567873,-0.23064721258239748,9.746424455789185,0.005410853668212891,0.02123304613494873,0.025229457710266114,61,06ebfe00,0.0,0.0,0.0,0.0,0.0,0.0
2026-05-26 15:21:55.704285,1779823315.704285,-2350518,-3853430,162833810,23404,91841,109127,-0.14069035244567873,-0.23064721258239748,9.746424455789185,0.005410853668212891,0.02123304613494873,0.025229457710266114,61,06ebfe00,0.0,0.0,0.0,0.0,0.0,0.0
2026-05-26 15:21:55.710405,1779823315.710405,-2492661,-3867885,163169721,163357,64300,75841,-0.1491983276101685,-0.23151241720733645,9.766530422635805,0.037767083518981934,0.01486574478149414,0.01753394945526123,61,06ebfe00,0.0,0.0,0.0,0.0,0.0,0.0
2026-05-26 15:21:55.713513,1779823315.713513,-2492661,-3867885,163169721,163357,64300,75841,-0.1491983276101685,-0.23151241720733645,9.766530422635805,0.037767083518981934,0.01486574478149414,0.01753394945526123,61,06ebfe00,0.0,0.0,0.0,0.0,0.0,0.0
2026-05-26 15:21:55.720139,1779823315.720139,-3006854,-3731384,165625938,197022,321717,76237,-0.17997537096618654,-0.22334214418701176,9.913547393113404,0.04555021412658691,0.07437889290618896,0.017625502098083497,61,06ebfe00,0.0,0.0,0.0,0.0,0.0,0.0
2026-05-26 15:21:55.723249,1779823315.723249,-3006854,-3731384,165625938,197022,321717,76237,-0.17997537096618654,-0.22334214418701176,9.913547393113404,0.04555021412658691,0.07437889290618896,0.017625502098083497,61,06ebfe00,0.0,0.0,0.0,0.0,0.0,0.0
2026-05-26 15:21:55.729901,1779823315.729901,-3222404,-3553122,165828697,-51620,-278448,77675,-0.19287712516235353,-0.21267226477844242,9.925683541473695,-0.011934210662841798,-0.06437537951660156,0.01795795841217041,61,06eafe00,0.0,0.0,0.0,0.0,0.0,0.0
2026-05-26 15:21:55.732286,1779823315.732286,-3222404,-3553122,165828697,-51620,-278448,77675,-0.19287712516235353,-0.21267226477844242,9.925683541473695,-0.011934210662841798,-0.06437537951660156,0.01795795841217041,61,06eafe00,0.0,0.0,0.0,0.0,0.0,0.0
2026-05-26 15:21:55.739896,1779823315.739896,-2280851,-3741428,163491341,-114679,-137497,86747,-0.13652043126922608,-0.223943328223877,9.78578100108429,-0.026513044258117676,-0.03178841851043701,0.020055346229553222,61,06eafe00,0.0,0.0,0.0,0.0,0.0,0.0
2026-05-26 15:21:55.741827,1779823315.741827,-2280851,-3741428,163491341,-114679,-137497,86747,-0.13652043126922608,-0.223943328223877,9.78578100108429,-0.026513044258117676,-0.03178841851043701,0.020055346229553222,61,06eafe00,0.0,0.0,0.0,0.0,0.0,0.0
2026-05-26 15:21:55.749341,1779823315.749341,-2123904,-3505351,162185804,7890,-23732,95421,-0.12712636207031253,-0.2098129295907593,9.707638029764405,0.0018241170501708984,-0.0054866851501464845,0.02206071901702881,61,06eafe00,0.0,0.0,0.0,0.0,0.0,0.0
2026-05-26 15:21:55.750773,1779823315.750773,-2123904,-3505351,162185804,7890,-23732,95421,-0.12712636207031253,-0.2098129295907593,9.707638029764405,0.0018241170501708984,-0.0054866851501464845,0.02206071901702881,61,06eafe00,0.0,0.0,0.0,0.0,0.0,0.0
2026-05-26 15:21:55.759549,1779823315.759549,-1967511,-3505743,163089841,96924,48635,98992,-0.11776545256439211,-0.20983639276702884,9.761749201920473,0.02240820291137695,0.011244097938537598,0.02288631115722656,61,06eafe00,0.0,0.0,0.0,0.0,0.0,0.0
2026-05-26 15:21:55.761454,1779823315.761454,-1967511,-3505743,163089841,96924,48635,98992,-0.11776545256439211,-0.20983639276702884,9.761749201920473,0.02240820291137695,0.011244097938537598,0.02288631115722656,61,06eafe00,0.0,0.0,0.0,0.0,0.0,0.0
2026-05-26 15:21:55.769762,1779823315.769762,-2695690,-3440877,165819538,163440,354395,114134,-0.16135063683166506,-0.20595383564483646,9.925135329148562,0.03778627258300781,0.08193383548736573,0.02638704377746582,61,06eafe00,0.0,0.0,0.0,0.0,0.0,0.0
2026-05-26 15:21:55.771849,1779823315.771849,-2695690,-3440877,165819538,163440,354395,114134,-0.16135063683166506,-0.20595383564483646,9.925135329148562,0.03778627258300781,0.08193383548736573,0.02638704377746582,61,06eafe00,0.0,0.0,0.0,0.0,0.0,0.0
2026-05-26 15:21:55.779767,1779823315.779767,-3105675,-3629111,165954064,-39447,-225429,74570,-0.18589030602264406,-0.21722058952728274,9.933187388461915,-0.00911989167022705,-0.05211772908782959,0.017240102462768556,61,06eafe00,0.0,0.0,0.0,0.0,0.0,0.0
2026-05-26 15:21:55.781897,1779823315.781897,-3105675,-3629111,165954064,-39447,-225429,74570,-0.18589030602264406,-0.21722058952728274,9.933187388461915,-0.00911989167022705,-0.05211772908782959,0.017240102462768556,61,06eafe00,0.0,0.0,0.0,0.0,0.0,0.0
2026-05-26 15:21:55.789504,1779823315.789504,-2630422,-4076718,163549770,-40658,-75967,56526,-0.15744401798278812,-0.24401212508972173,9.789278271304322,-0.009399867050170898,-0.01756307984161377,0.013068446182250977,61,06eafe00,0.0,0.0,0.0,0.0,0.0,0.0
2026-05-26 15:21:55.791363,1779823315.791363,-2630422,-4076718,163549770,-40658,-75967,56526,-0.15744401798278812,-0.24401212508972173,9.789278271304322,-0.009399867050170898,-0.01756307984161377,0.013068446182250977,61,06eafe00,0.0,0.0,0.0,0.0,0.0,0.0
2026-05-26 15:21:55.799334,1779823315.799334,-2481883,-4016824,162370270,68605,-76598,23801,-0.14855320997283938,-0.24042716723388674,9.718679249850465,0.01586103298187256,-0.017708962966918946,0.005502637504577637,61,06eafe00,0.0,0.0,0.0,0.0,0.0,0.0
2026-05-26 15:21:55.801235,1779823315.801235,-2481883,-4016824,162370270,68605,-76598,23801,-0.14855320997283938,-0.24042716723388674,9.718679249850465,0.01586103298187256,-0.017708962966918946,0.005502637504577637,61,06eafe00,0.0,0.0,0.0,0.0,0.0,0.0
2026-05-26 15:21:55.809176,1779823315.809176,-2369509,-3820292,164554481,160048,254010,37258,-0.14182705953887942,-0.22866373621704106,9.849415289908753,0.03700206408691406,0.058725471725463864,0.008613809005737305,61,06eafe00,0.0,0.0,0.0,0.0,0.0,0.0
2026-05-26 15:21:55.812833,1779823315.812833,-2369509,-3820292,164554481,160048,254010,37258,-0.14182705953887942,-0.22866373621704106,9.849415289908753,0.03700206408691406,0.058725471725463864,0.008613809005737305,61,06eafe00,0.0,0.0,0.0,0.0,0.0,0.0
2026-05-26 15:21:55.820184,1779823315.820184,-2912197,-3465685,165441261,-81086,-265852,73932,-0.1743096723025513,-0.20743871951446535,9.902493543613588,-0.01874655958557129,-0.06146326565551758,0.017092600982666014,61,06eafe00,0.0,0.0,0.0,0.0,0.0,0.0
2026-05-26 15:21:55.823784,1779823315.823784,-2912197,-3465685,165441261,-81086,-265852,73932,-0.1743096723025513,-0.20743871951446535,9.902493543613588,-0.01874655958557129,-0.06146326565551758,0.017092600982666014,61,06eafe00,0.0,0.0,0.0,0.0,0.0,0.0
2026-05-26 15:21:55.829669,1779823315.829669,-2601966,-3600961,163191927,-48489,-29689,82117,-0.15574078292175295,-0.21553567010894778,9.76785956368744,-0.01121034368133545,-0.006863905082702636,0.018984920127868652,61,06eafe00,0.0,0.0,0.0,0.0,0.0,0.0
2026-05-26 15:21:55.832981,1779823315.832981,-2601966,-3600961,163191927,-48489,-29689,82117,-0.15574078292175295,-0.21553567010894778,9.76785956368744,-0.01121034368133545,-0.006863905082702636,0.018984920127868652,61,06eafe00,0.0,0.0,0.0,0.0,0.0,0.0
2026-05-26 15:21:55.841141,1779823315.841141,-2502531,-3728421,162712733,76474,-79120,62578,-0.14978909686981204,-0.22316479369903566,9.739177386929018,0.017680294967651368,-0.018292033081054686,0.014467629501342774,61,06eafe00,0.0,0.0,0.0,0.0,0.0,0.0
2026-05-26 15:21:55.843183,1779823315.843183,-2502531,-3728421,162712733,76474,-79120,62578,-0.14978909686981204,-0.22316479369903566,9.739177386929018,0.017680294967651368,-0.018292033081054686,0.014467629501342774,61,06eafe00,0.0,0.0,0.0,0.0,0.0,0.0
2026-05-26 15:21:55.849278,1779823315.849278,-2304664,-3791979,163765689,143129,49688,56280,-0.13794575937255862,-0.22696906042694096,9.802202112010805,0.03309050054168701,0.01148754473876953,0.01301157257080078,61,06eafe00,0.0,0.0,0.0,0.0,0.0,0.0
2026-05-26 15:21:55.850859,1779823315.850859,-2304664,-3791979,163765689,143129,49688,56280,-0.13794575937255862,-0.22696906042694096,9.802202112010805,0.03309050054168701,0.01148754473876953,0.01301157257080078,61,06eafe00,0.0,0.0,0.0,0.0,0.0,0.0
2026-05-26 15:21:55.859288,1779823315.859288,-3124216,-3782561,165843860,-47582,-122735,54085,-0.187000078347168,-0.22640534564605716,9.926591123468018,-0.011000651138305664,-0.028375539436340334,0.012504102745056152,61,06eafe00,0.0,0.0,0.0,0.0,0.0,0.0
2026-05-26 15:21:55.861061,1779823315.861061,-3124216,-3782561,165843860,-47582,-122735,54085,-0.187000078347168,-0.22640534564605716,9.926591123468018,-0.011000651138305664,-0.028375539436340334,0.012504102745056152,61,06eafe00,0.0,0.0,0.0,0.0,0.0,0.0
2026-05-26 15:21:55.869462,1779823315.869462,-2499986,-4005454,164122607,-102522,-172576,93613,-0.14963676578918458,-0.23974661541198733,9.823565453714297,-0.023702424362182617,-0.039898456787109376,0.02164272109222412,61,06eafe00,0.0,0.0,0.0,0.0,0.0,0.0
2026-05-26 15:21:55.871697,1779823315.871697,-2499986,-4005454,164122607,-102522,-172576,93613,-0.14963676578918458,-0.23974661541198733,9.823565453714297,-0.023702424362182617,-0.039898456787109376,0.02164272109222412,61,06eafe00,0.0,0.0,0.0,0.0,0.0,0.0
2026-05-26 15:21:55.879483,1779823315.879483,-2439678,-3989375,162981205,-40262,-29038,94932,-0.146027027946167,-0.23878420619964602,9.755246789631654,-0.009308314407348632,-0.006713398086547852,0.02194766537475586,61,06eafe00,0.0,0.0,0.0,0.0,0.0,0.0
2026-05-26 15:21:55.881627,1779823315.881627,-2439678,-3989375,162981205,-40262,-29038,94932,-0.146027027946167,-0.23878420619964602,9.755246789631654,-0.009308314407348632,-0.006713398086547852,0.02194766537475586,61,06eafe00,0.0,0.0,0.0,0.0,0.0,0.0
2026-05-26 15:21:55.889451,1779823315.889451,-1992342,-3824136,163873574,191963,89470,88136,-0.1192517130999756,-0.22889381899658207,9.808659573163453,0.04438060599517822,0.02068488624572754,0.020376474060058592,61,06eafe00,0.0,0.0,0.0,0.0,0.0,0.0
2026-05-26 15:21:55.891243,1779823315.891243,-1992342,-3824136,163873574,191963,89470,88136,-0.1192517130999756,-0.22889381899658207,9.808659573163453,0.04438060599517822,0.02068488624572754,0.020376474060058592,61,06eafe00,0.0,0.0,0.0,0.0,0.0,0.0
2026-05-26 15:21:55.899475,1779823315.899475,-2678542,-3528469,165602574,125345,114246,88283,-0.1603242425799561,-0.2111966584402466,9.912148939923707,0.028978954582214354,0.026412937454223632,0.02041045951080322,61,06e9fe00,0.0,0.0,0.0,0.0,0.0,0.0
2026-05-26 15:21:55.901107,1779823315.901107,-2678542,-3528469,165602574,125345,114246,88283,-0.1603242425799561,-0.2111966584402466,9.912148939923707,0.028978954582214354,0.026412937454223632,0.02041045951080322,61,06e9fe00,0.0,0.0,0.0,0.0,0.0,0.0
2026-05-26 15:21:55.909315,1779823315.909315,-2459986,-3762043,164888014,-33357,-244969,79922,-0.14724256412902834,-0.22517723990448002,9.869378921466677,-0.007711922996520996,-0.05663525090789795,0.018477450302124023,61,06e9fe00,0.0,0.0,0.0,0.0,0.0,0.0
2026-05-26 15:21:55.910947,1779823315.910947,-2459986,-3762043,164888014,-33357,-244969,79922,-0.14724256412902834,-0.22517723990448002,9.869378921466677,-0.007711922996520996,-0.05663525090789795,0.018477450302124023,61,06e9fe00,0.0,0.0,0.0,0.0,0.0,0.0
2026-05-26 15:21:55.919449,1779823315.919449,-2435201,-3861016,163790100,-11369,-64447,78016,-0.145759056925354,-0.23110127292724614,9.803663233428956,-0.0026284393844604494,-0.01489973023223877,0.01803679541015625,61,06e9fe00,0.0,0.0,0.0,0.0,0.0,0.0
2026-05-26 15:21:55.921183,1779823315.921183,-2435201,-3861016,163790100,-11369,-64447,78016,-0.145759056925354,-0.23110127292724614,9.803663233428956,-0.0026284393844604494,-0.01489973023223877,0.01803679541015625,61,06e9fe00,0.0,0.0,0.0,0.0,0.0,0.0
2026-05-26 15:21:55.929467,1779823315.929467,-2784994,-3854128,162624517,71800,-1350,70400,-0.16669593145812991,-0.23068899140136723,9.733897214587708,0.016599696350097656,-0.0003121112823486328,0.016276025390625,61,06e9fe00,0.0,0.0,0.0,0.0,0.0,0.0
2026-05-26 15:21:55.930904,1779823315.930904,-2784994,-3854128,162624517,71800,-1350,70400,-0.16669593145812991,-0.23068899140136723,9.733897214587708,0.016599696350097656,-0.0003121112823486328,0.016276025390625,61,06e9fe00,0.0,0.0,0.0,0.0,0.0,0.0
2026-05-26 15:21:55.939547,1779823315.939547,-2662957,-3854947,164483108,168397,174248,69692,-0.1593914017581177,-0.23073801268035893,9.845143256031495,0.03893229897308349,0.04028501239013672,0.016112340362548827,61,06e9fe00,0.0,0.0,0.0,0.0,0.0,0.0
2026-05-26 15:21:55.941186,1779823315.941186,-2662957,-3854947,164483108,168397,174248,69692,-0.1593914017581177,-0.23073801268035893,9.845143256031495,0.03893229897308349,0.04028501239013672,0.016112340362548827,61,06e9fe00,0.0,0.0,0.0,0.0,0.0,0.0
2026-05-26 15:21:55.949339,1779823315.949339,-3157219,-3604362,165792023,48634,16434,89215,-0.1889754742819214,-0.21573923710510257,9.92348841768158,0.011243866744995118,0.0037994346771240235,0.02062593189239502,61,06e9fe00,0.0,0.0,0.0,0.0,0.0,0.0
2026-05-26 15:21:55.950967,1779823315.950967,-3157219,-3604362,165792023,48634,16434,89215,-0.1889754742819214,-0.21573923710510257,9.92348841768158,0.011243866744995118,0.0037994346771240235,0.02062593189239502,61,06e9fe00,0.0,0.0,0.0,0.0,0.0,0.0
2026-05-26 15:21:55.959343,1779823315.959343,-2505596,-3734706,164595583,-64127,-266896,83516,-0.1499725525720215,-0.22354098263488772,9.851875451824647,-0.01482574829864502,-0.06170463171386719,0.019308359893798827,61,06e9fe00,0.0,0.0,0.0,0.0,0.0,0.0
2026-05-26 15:21:55.962776,1779823315.962776,-2505596,-3734706,164595583,-64127,-266896,83516,-0.1499725525720215,-0.22354098263488772,9.851875451824647,-0.01482574829864502,-0.06170463171386719,0.019308359893798827,61,06e9fe00,0.0,0.0,0.0,0.0,0.0,0.0
2026-05-26 15:21:55.970041,1779823315.970041,-2377364,-3841025,163016176,126556,-23404,63226,-0.1422972208898926,-0.22990471079254154,9.757339980288087,0.029258929962158203,-0.005410853668212891,0.014617442916870118,61,06e9fe00,0.0,0.0,0.0,0.0,0.0,0.0
2026-05-26 15:21:55.972699,1779823315.972699,-2377364,-3841025,163016176,126556,-23404,63226,-0.1422972208898926,-0.22990471079254154,9.757339980288087,0.029258929962158203,-0.005410853668212891,0.014617442916870118,61,06e9fe00,0.0,0.0,0.0,0.0,0.0,0.0
2026-05-26 15:21:55.980251,1779823315.980251,-2385956,-3918720,164818123,224060,131199,58032,-0.14281149540649415,-0.23455514824218754,9.865195592760927,0.051801225128173825,0.03033236157989502,0.013416623657226562,61,06e9fe00,0.0,0.0,0.0,0.0,0.0,0.0
2026-05-26 15:21:55.983538,1779823315.983538,-2385956,-3918720,164818123,224060,131199,58032,-0.14281149540649415,-0.23455514824218754,9.865195592760927,0.051801225128173825,0.03033236157989502,0.013416623657226562,61,06e9fe00,0.0,0.0,0.0,0.0,0.0,0.0
2026-05-26 15:21:55.989384,1779823315.989384,-2706759,-3857647,165528562,169169,160491,58436,-0.1620131722860718,-0.23089962129241948,9.90771894859192,0.039110780387878415,0.03710448282623291,0.013510025848388672,61,06e9fe00,0.0,0.0,0.0,0.0,0.0,0.0
2026-05-26 15:21:55.990895,1779823315.990895,-2706759,-3857647,165528562,169169,160491,58436,-0.1620131722860718,-0.23089962129241948,9.90771894859192,0.039110780387878415,0.03710448282623291,0.013510025848388672,61,06e9fe00,0.0,0.0,0.0,0.0,0.0,0.0
2026-05-26 15:21:55.999489,1779823315.999489,-2646106,-3902495,164023353,-18876,-179006,62850,-0.15838278445373538,-0.23358400019378667,9.817624601424868,-0.004364009307861328,-0.04138503126525879,0.014530514144897462,61,06e9fe00,0.0,0.0,0.0,0.0,0.0,0.0
2026-05-26 15:21:56.000893,1779823316.000893,-2646106,-3902495,164023353,-18876,-179006,62850,-0.15838278445373538,-0.23358400019378667,9.817624601424868,-0.004364009307861328,-0.04138503126525879,0.014530514144897462,61,06e9fe00,0.0,0.0,0.0,0.0,0.0,0.0
2026-05-26 15:21:56.009695,1779823316.009695,-2593227,-3824161,162920369,99218,86917,72395,-0.15521770971405033,-0.22889531537261967,9.751605448326723,0.02293856089782715,0.020094649131774903,0.016737256507873534,61,06e9fe00,0.0,0.0,0.0,0.0,0.0,0.0
2026-05-26 15:21:56.012086,1779823316.012086,-2593227,-3824161,162920369,99218,86917,72395,-0.15521770971405033,-0.22889531537261967,9.751605448326723,0.02293856089782715,0.020094649131774903,0.016737256507873534,61,06e9fe00,0.0,0.0,0.0,0.0,0.0,0.0
2026-05-26 15:21:56.019349,1779823316.019349,-2510782,-3630518,164083885,157104,34091,69259,-0.15028296081726075,-0.21730480557067874,9.821247746797182,0.036321430297851565,0.00788161905670166,0.016012233558654786,61,06e9fe00,0.0,0.0,0.0,0.0,0.0,0.0
2026-05-26 15:21:56.020824,1779823316.020824,-2510782,-3630518,164083885,157104,34091,69259,-0.15028296081726075,-0.21730480557067874,9.821247746797182,0.036321430297851565,0.00788161905670166,0.016012233558654786,61,06e9fe00,0.0,0.0,0.0,0.0,0.0,0.0
2026-05-26 15:21:56.029510,1779823316.029510,-2657273,-3576597,165603624,141889,112054,88199,-0.1590511857022095,-0.21407736187774662,9.912211787717286,0.03280382054901123,0.025906161209106444,0.020391039253234863,61,06e8fe00,0.0,0.0,0.0,0.0,0.0,0.0
2026-05-26 15:21:56.031030,1779823316.031030,-2657273,-3576597,165603624,141889,112054,88199,-0.1590511857022095,-0.21407736187774662,9.912211787717286,0.03280382054901123,0.025906161209106444,0.020391039253234863,61,06e8fe00,0.0,0.0,0.0,0.0,0.0,0.0
2026-05-26 15:21:56.039385,1779823316.039385,-2577458,-3721112,164629933,-47092,-240099,98232,-0.1542738555645752,-0.22272731320068362,9.853931472500307,-0.010887366302490235,-0.05550933835601807,0.022710604064941405,61,06e8fe00,0.0,0.0,0.0,0.0,0.0,0.0
2026-05-26 15:21:56.040981,1779823316.040981,-2577458,-3721112,164629933,-47092,-240099,98232,-0.1542738555645752,-0.22272731320068362,9.853931472500307,-0.010887366302490235,-0.05550933835601807,0.022710604064941405,61,06e8fe00,0.0,0.0,0.0,0.0,0.0,0.0
2026-05-26 15:21:56.049539,1779823316.049539,-2250742,-3983583,163011240,35515,51164,91444,-0.134718255824585,-0.2384375257992554,9.757044535803225,0.008210838661193848,0.011828786407470704,0.021141262298583985,61,06e8fe00,0.0,0.0,0.0,0.0,0.0,0.0
2026-05-26 15:21:56.051009,1779823316.051009,-2250742,-3983583,163011240,35515,51164,91444,-0.134718255824585,-0.2384375257992554,9.757044535803225,0.008210838661193848,0.011828786407470704,0.021141262298583985,61,06e8fe00,0.0,0.0,0.0,0.0,0.0,0.0
2026-05-26 15:21:56.059421,1779823316.059421,-2607100,-3840781,163308750,82900,71062,81271,-0.156048078704834,-0.2298901061624146,9.774852009201052,0.01916594467163086,0.01642907551574707,0.018789330390930177,61,06e8fe00,0.0,0.0,0.0,0.0,0.0,0.0
2026-05-26 15:21:56.060981,1779823316.060981,-2607100,-3840781,163308750,82900,71062,81271,-0.156048078704834,-0.2298901061624146,9.774852009201052,0.01916594467163086,0.01642907551574707,0.018789330390930177,61,06e8fe00,0.0,0.0,0.0,0.0,0.0,0.0
2026-05-26 15:21:56.069445,1779823316.069445,-2608530,-3829088,164326590,129583,96041,61775,-0.1561336714141846,-0.2291902211621094,9.835774864645387,0.029958752815246584,0.0222040590133667,0.014281981086730957,61,06e8fe00,0.0,0.0,0.0,0.0,0.0,0.0
2026-05-26 15:21:56.070650,1779823316.070650,-2608530,-3829088,164326590,129583,96041,61775,-0.1561336714141846,-0.2291902211621094,9.835774864645387,0.029958752815246584,0.0222040590133667,0.014281981086730957,61,06e8fe00,0.0,0.0,0.0,0.0,0.0,0.0
2026-05-26 15:21:56.079886,1779823316.079886,-3292633,-3524396,165664984,20879,158031,54677,-0.19708068487213137,-0.2109528688562012,9.915884493063967,0.004827089973449707,0.03653574671173096,0.01264096932220459,61,06e8fe00,0.0,0.0,0.0,0.0,0.0,0.0
2026-05-26 15:21:56.081719,1779823316.081719,-3292633,-3524396,165664984,20879,158031,54677,-0.19708068487213137,-0.2109528688562012,9.915884493063967,0.004827089973449707,0.03653574671173096,0.01264096932220459,61,06e8fe00,0.0,0.0,0.0,0.0,0.0,0.0
2026-05-26 15:21:56.089354,1779823316.089354,-3090773,-3416917,164705543,-71996,-296441,50449,-0.18499834619415287,-0.20451970885040285,9.858457112188416,-0.016645010284423827,-0.06853524492645263,0.011663483024597169,61,06e8fe00,0.0,0.0,0.0,0.0,0.0,0.0
2026-05-26 15:21:56.090618,1779823316.090618,-3090773,-3416917,164705543,-71996,-296441,50449,-0.18499834619415287,-0.20451970885040285,9.858457112188416,-0.016645010284423827,-0.06853524492645263,0.011663483024597169,61,06e8fe00,0.0,0.0,0.0,0.0,0.0,0.0
2026-05-26 15:21:56.099315,1779823316.099315,-2515056,-3406850,162865947,-5526,-23199,82937,-0.15053878126464845,-0.20391714814758305,9.748348017257998,-0.0012775755157470702,-0.005363458992004394,0.019174498832702638,61,06e8fe00,0.0,0.0,0.0,0.0,0.0,0.0
2026-05-26 15:21:56.101165,1779823316.101165,-2515056,-3406850,162865947,-5526,-23199,82937,-0.15053878126464845,-0.20391714814758305,9.748348017257998,-0.0012775755157470702,-0.005363458992004394,0.019174498832702638,61,06e8fe00,0.0,0.0,0.0,0.0,0.0,0.0
2026-05-26 15:21:56.109526,1779823316.109526,-2101055,-3423330,164070457,110877,15697,77581,-0.12575873422698977,-0.20490355923156742,9.820444013299866,0.025634046409606932,0.003629045036315918,0.017936226219177245,61,06e8fe00,0.0,0.0,0.0,0.0,0.0,0.0
2026-05-26 15:21:56.111173,1779823316.111173,-2101055,-3423330,164070457,110877,15697,77581,-0.12575873422698977,-0.20490355923156742,9.820444013299866,0.025634046409606932,0.003629045036315918,0.017936226219177245,61,06e8fe00,0.0,0.0,0.0,0.0,0.0,0.0
2026-05-26 15:21:56.120333,1779823316.120333,-2865997,-3487321,165360437,7235,131015,93245,-0.17154436938507084,-0.20873374319244387,9.897655819739077,0.0016726852798461915,0.030289821968078612,0.02155764186859131,61,06e8fe00,0.0,0.0,0.0,0.0,0.0,0.0
2026-05-26 15:21:56.123458,1779823316.123458,-2865997,-3487321,165360437,7235,131015,93245,-0.17154436938507084,-0.20873374319244387,9.897655819739077,0.0016726852798461915,0.030289821968078612,0.02155764186859131,61,06e8fe00,0.0,0.0,0.0,0.0,0.0,0.0
2026-05-26 15:21:56.130055,1779823316.130055,-3011530,-3703160,164726729,-103365,-236621,50149,-0.1802552531402588,-0.2216527954956055,9.859725201097719,-0.023897320518493654,-0.054705247215270994,0.011594124961853027,61,06e8fe00,0.0,0.0,0.0,0.0,0.0,0.0
2026-05-26 15:21:56.133840,1779823316.133840,-3011530,-3703160,164726729,-103365,-236621,50149,-0.1802552531402588,-0.2216527954956055,9.859725201097719,-0.023897320518493654,-0.054705247215270994,0.011594124961853027,61,06e8fe00,0.0,0.0,0.0,0.0,0.0,0.0
2026-05-26 15:21:56.140313,1779823316.140313,-2834220,-3892226,163349022,-37098,-17327,25492,-0.1696423557312012,-0.23296934877258305,9.777262491432497,-0.008576818038940429,-0.004005890510559082,0.005893585784912109,61,06e8fe00,0.0,0.0,0.0,0.0,0.0,0.0
2026-05-26 15:21:56.142990,1779823316.142990,-2834220,-3892226,163349022,-37098,-17327,25492,-0.1696423557312012,-0.23296934877258305,9.777262491432497,-0.008576818038940429,-0.004005890510559082,0.005893585784912109,61,06e8fe00,0.0,0.0,0.0,0.0,0.0,0.0
2026-05-26 15:21:56.149971,1779823316.149971,-2504360,-3756927,163395241,51329,-129557,-14224,-0.14989857174072269,-0.22487102151214602,9.780028931595766,0.01186693334197998,-0.02995274178314209,-0.0032884969482421876,61,06e8fe00,0.0,0.0,0.0,0.0,0.0,0.0
2026-05-26 15:21:56.152223,1779823316.152223,-2504360,-3756927,163395241,51329,-129557,-14224,-0.14989857174072269,-0.22487102151214602,9.780028931595766,0.01186693334197998,-0.02995274178314209,-0.0032884969482421876,61,06e8fe00,0.0,0.0,0.0,0.0,0.0,0.0
2026-05-26 15:21:56.159380,1779823316.159380,-2360815,-3564400,164937491,81679,100500,-4893,-0.14130667980804446,-0.21334730993652345,9.872340369355165,0.018883657356262205,0.02323495101928711,-0.0011312300033569337,61,06e8fe00,0.0,0.0,0.0,0.0,0.0,0.0
2026-05-26 15:21:56.160857,1779823316.160857,-2360815,-3564400,164937491,81679,100500,-4893,-0.14130667980804446,-0.21334730993652345,9.872340369355165,0.018883657356262205,0.02323495101928711,-0.0011312300033569337,61,06e8fe00,0.0,0.0,0.0,0.0,0.0,0.0
2026-05-26 15:21:56.169134,1779823316.169134,-2686830,-3431609,165441213,-12070,-183972,8012,-0.16082032116394046,-0.20539909912017826,9.902490670571595,-0.0027905060577392577,-0.0425331383972168,0.0018523226623535156,61,06e8fe00,0.0,0.0,0.0,0.0,0.0,0.0
2026-05-26 15:21:56.170451,1779823316.170451,-2686830,-3431609,165441213,-12070,-183972,8012,-0.16082032116394046,-0.20539909912017826,9.902490670571595,-0.0027905060577392577,-0.0425331383972168,0.0018523226623535156,61,06e8fe00,0.0,0.0,0.0,0.0,0.0,0.0
2026-05-26 15:21:56.179466,1779823316.179466,-2221101,-3783509,164250781,-48906,-175382,27773,-0.1329440925393677,-0.22646208822540287,9.831237313804017,-0.011306751388549805,-0.04054718586730957,0.006420938255310059,61,06e8fe00,0.0,0.0,0.0,0.0,0.0,0.0
2026-05-26 15:21:56.180726,1779823316.180726,-2221101,-3783509,164250781,-48906,-175382,27773,-0.1329440925393677,-0.22646208822540287,9.831237313804017,-0.011306751388549805,-0.04054718586730957,0.006420938255310059,61,06e8fe00,0.0,0.0,0.0,0.0,0.0,0.0
2026-05-26 15:21:56.189431,1779823316.189431,-2187416,-3823704,163013508,-16173,-33863,3374,-0.1309278754663086,-0.2288679616186524,9.757180287037356,-0.003739093162536621,-0.007828906929016114,0.0007800470123291016,61,06e8fe00,0.0,0.0,0.0,0.0,0.0,0.0
2026-05-26 15:21:56.190640,1779823316.190640,-2187416,-3823704,163013508,-16173,-33863,3374,-0.1309278754663086,-0.2288679616186524,9.757180287037356,-0.003739093162536621,-0.007828906929016114,0.0007800470123291016,61,06e8fe00,0.0,0.0,0.0,0.0,0.0,0.0
2026-05-26 15:21:56.199421,1779823316.199421,-2100663,-3893457,163171001,58587,-6934,17000,-0.12573527105072024,-0.23304303032867435,9.76660703708893,0.013544936073303223,-0.0016030960235595703,0.003930290222167968,61,06e8fe00,0.0,0.0,0.0,0.0,0.0,0.0
2026-05-26 15:21:56.201121,1779823316.201121,-2100663,-3893457,163171001,58587,-6934,17000,-0.12573527105072024,-0.23304303032867435,9.76660703708893,0.013544936073303223,-0.0016030960235595703,0.003930290222167968,61,06e8fe00,0.0,0.0,0.0,0.0,0.0,0.0
2026-05-26 15:21:56.209619,1779823316.209619,-3011281,-3731511,165765623,29179,165401,35929,-0.18024034923492435,-0.22334974577728275,9.921908244585877,0.0067459963760375975,0.03823964311981201,0.008306552787780763,61,06e8fe00,0.0,0.0,0.0,0.0,0.0,0.0
2026-05-26 15:21:56.211176,1779823316.211176,-3011281,-3731511,165765623,29179,165401,35929,-0.18024034923492435,-0.22334974577728275,9.921908244585877,0.0067459963760375975,0.03823964311981201,0.008306552787780763,61,06e8fe00,0.0,0.0,0.0,0.0,0.0,0.0
2026-05-26 15:21:56.219456,1779823316.219456,-3066167,-3774290,165532748,-54406,-233418,41605,-0.18352555304290774,-0.22591028459777834,9.907969501795655,-0.012578315872192382,-0.05396473429870605,0.009618807334899903,61,06e8fe00,0.0,0.0,0.0,0.0,0.0,0.0
2026-05-26 15:21:56.221338,1779823316.221338,-3066167,-3774290,165532748,-54406,-233418,41605,-0.18352555304290774,-0.22591028459777834,9.907969501795655,-0.012578315872192382,-0.05396473429870605,0.009618807334899903,61,06e8fe00,0.0,0.0,0.0,0.0,0.0,0.0
2026-05-26 15:21:56.230179,1779823316.230179,-2746846,-3873051,164629200,-90208,-226817,43242,-0.16441258133483888,-0.23182162835174563,9.853887598754884,-0.020855507080078124,-0.05243862572479248,0.00999727116394043,61,06e8fe00,0.0,0.0,0.0,0.0,0.0,0.0
2026-05-26 15:21:56.232704,1779823316.232704,-2746846,-3873051,164629200,-90208,-226817,43242,-0.16441258133483888,-0.23182162835174563,9.853887598754884,-0.020855507080078124,-0.05243862572479248,0.00999727116394043,61,06e8fe00,0.0,0.0,0.0,0.0,0.0,0.0
2026-05-26 15:21:56.239911,1779823316.239911,-2246628,-3968303,162856712,-25830,-131374,9479,-0.13447201218383792,-0.2375229407650757,9.747795255949708,-0.005971729202270508,-0.030372820449829103,0.0021914835891723634,61,06e8fe00,0.0,0.0,0.0,0.0,0.0,0.0
2026-05-26 15:21:56.241768,1779823316.241768,-2246628,-3968303,162856712,-25830,-131374,9479,-0.13447201218383792,-0.2375229407650757,9.747795255949708,-0.005971729202270508,-0.030372820449829103,0.0021914835891723634,61,06e8fe00,0.0,0.0,0.0,0.0,0.0,0.0
2026-05-26 15:21:56.249498,1779823316.249498,-1761530,-3870351,163428364,68612,52746,27103,-0.10543645126037599,-0.23166001973968509,9.782011510135499,0.015862651336669923,0.012194534591674805,0.006266038581848144,61,06e7fe00,0.0,0.0,0.0,0.0,0.0,0.0
2026-05-26 15:21:56.251190,1779823316.251190,-1761530,-3870351,163428364,68612,52746,27103,-0.10543645126037599,-0.23166001973968509,9.782011510135499,0.015862651336669923,0.012194534591674805,0.006266038581848144,61,06e7fe00,0.0,0.0,0.0,0.0,0.0,0.0
2026-05-26 15:21:56.259469,1779823316.259469,-2526292,-3741994,165400290,46314,209575,34779,-0.15121131251098635,-0.2239772061773682,9.900041222708131,0.01070749772644043,0.04845238666534424,0.008040680213928222,61,06e7fe00,0.0,0.0,0.0,0.0,0.0,0.0
