sys_datetime,unix_timestamp,raw_accel_x_lsb,raw_accel_y_lsb,raw_accel_z_lsb,raw_gyro_x_lsb,raw_gyro_y_lsb,raw_gyro_z_lsb,imu_type,imu_status_hex,veh_lat_acc_ms2,veh_long_acc_ms2,veh_vert_acc_ms2,veh_pitch_rate_degs,veh_roll_rate_degs,veh_yaw_rate_degs
2026-05-25 09:59:38.098798,1779717578.098798,2802869,-3634266,164399813,19687,114707,-87045,61,ee5afe00,,,,,,
2026-05-25 09:59:38.109584,1779717578.109584,2802869,-3634266,164399813,19687,114707,-87045,61,ee5afe00,0.0,0.0,0.0,0.0,0.0,0.0
2026-05-25 09:59:38.116049,1779717578.116049,2868440,-3542056,164452996,25458,128823,-55705,61,ee5afe00,0.0,0.0,0.0,0.0,0.0,0.0
2026-05-25 09:59:38.123936,1779717578.123936,2868440,-3542056,164452996,25458,128823,-55705,61,ee5afe00,0.0,0.0,0.0,0.0,0.0,0.0
2026-05-25 09:59:38.129999,1779717578.129999,2599945,-3663926,164481213,129783,47179,-21183,61,ee5afe00,0.0,0.0,0.0,0.0,0.0,0.0
2026-05-25 09:59:38.137139,1779717578.137139,2599945,-3663926,164481213,129783,47179,-21183,61,ee5afe00,0.0,0.0,0.0,0.0,0.0,0.0
2026-05-25 09:59:38.146528,1779717578.146528,2600621,-3692461,164397249,105287,29217,9117,61,ee5afe00,0.0,0.0,0.0,0.0,0.0,0.0
2026-05-25 09:59:38.154186,1779717578.154186,2600621,-3692461,164397249,105287,29217,9117,61,ee5afe00,0.0,0.0,0.0,0.0,0.0,0.0
2026-05-25 09:59:38.159890,1779717578.159890,2429869,-3928990,164561245,82774,32500,-1766,61,ee5afe00,0.0,0.0,0.0,0.0,0.0,0.0
2026-05-25 09:59:38.167265,1779717578.167265,2429869,-3928990,164561245,82774,32500,-1766,61,ee5afe00,0.0,0.0,0.0,0.0,0.0,0.0
2026-05-25 09:59:38.173080,1779717578.173080,2555394,-3994191,164503611,100497,-118758,-9842,61,ee5afe00,0.0,0.0,0.0,0.0,0.0,0.0
2026-05-25 09:59:38.180339,1779717578.180339,2555394,-3994191,164503611,100497,-118758,-9842,61,ee5afe00,0.0,0.0,0.0,0.0,0.0,0.0
2026-05-25 09:59:38.186133,1779717578.186133,2769174,-4046867,164298768,92840,-99756,-25976,61,ee59fe00,0.0,0.0,0.0,0.0,0.0,0.0
2026-05-25 09:59:38.193637,1779717578.193637,2769174,-4046867,164298768,92840,-99756,-25976,61,ee59fe00,0.0,0.0,0.0,0.0,0.0,0.0
2026-05-25 09:59:38.203906,1779717578.203906,2977354,-3933181,164275108,97013,-89907,-35685,61,ee59fe00,0.0,0.0,0.0,0.0,0.0,0.0
2026-05-25 09:59:38.216573,1779717578.216573,2977354,-3933181,164275108,97013,-89907,-35685,61,ee59fe00,0.0,0.0,0.0,0.0,0.0,0.0
2026-05-25 09:59:38.226507,1779717578.226507,3179267,-3826318,164192859,96393,-35771,-37182,61,ee5afe00,0.0,0.0,0.0,0.0,0.0,0.0
2026-05-25 09:59:38.239296,1779717578.239296,3179267,-3826318,164192859,96393,-35771,-37182,61,ee5afe00,0.0,0.0,0.0,0.0,0.0,0.0
2026-05-25 09:59:38.249302,1779717578.249302,3242497,-3699129,164205795,73436,117718,560,61,ee5afe00,0.0,0.0,0.0,0.0,0.0,0.0
2026-05-25 09:59:38.261788,1779717578.261788,3242497,-3699129,164205795,73436,117718,560,61,ee5afe00,0.0,0.0,0.0,0.0,0.0,0.0
2026-05-25 09:59:38.271798,1779717578.271798,2963583,-3674992,164363334,70957,148256,23592,61,ee5afe00,0.0,0.0,0.0,0.0,0.0,0.0
2026-05-25 09:59:38.292748,1779717578.292748,2963583,-3674992,164363334,70957,148256,23592,61,ee5afe00,0.0,0.0,0.0,0.0,0.0,0.0
2026-05-25 09:59:38.299288,1779717578.299288,2850322,-3616201,164326463,79378,174912,3681,61,ee5afe00,0.0,0.0,0.0,0.0,0.0,0.0
2026-05-25 09:59:38.307682,1779717578.307682,2850322,-3616201,164326463,79378,174912,3681,61,ee5afe00,0.0,0.0,0.0,0.0,0.0,0.0
2026-05-25 09:59:38.353752,1779717578.353752,2527880,-3715340,164473475,58542,217022,-22069,61,ee5afe00,0.0,0.0,0.0,0.0,0.0,0.0
2026-05-25 09:59:38.371352,1779717578.371352,2527880,-3715340,164473475,58542,217022,-22069,61,ee5afe00,0.0,0.0,0.0,0.0,0.0,0.0
2026-05-25 09:59:38.380773,1779717578.380773,2517389,-3817838,164409216,107710,73906,-37765,61,ee5afe00,0.0,0.0,0.0,0.0,0.0,0.0
2026-05-25 09:59:38.391900,1779717578.391900,2517389,-3817838,164409216,107710,73906,-37765,61,ee5afe00,0.0,0.0,0.0,0.0,0.0,0.0
2026-05-25 09:59:38.402641,1779717578.402641,2696179,-3888837,164318985,46097,117720,-34652,61,ee5afe00,0.0,0.0,0.0,0.0,0.0,0.0
2026-05-25 09:59:38.413392,1779717578.413392,2696179,-3888837,164318985,46097,117720,-34652,61,ee5afe00,0.0,0.0,0.0,0.0,0.0,0.0
2026-05-25 09:59:38.423732,1779717578.423732,2867769,-3908471,164398956,68930,70207,-18901,61,ee5afe00,0.0,0.0,0.0,0.0,0.0,0.0
2026-05-25 09:59:38.434452,1779717578.434452,2867769,-3908471,164398956,68930,70207,-18901,61,ee5afe00,0.0,0.0,0.0,0.0,0.0,0.0
2026-05-25 09:59:38.443523,1779717578.443523,3077520,-3833836,164285295,101947,83222,13533,61,ee5afe00,0.0,0.0,0.0,0.0,0.0,0.0
2026-05-25 09:59:38.457819,1779717578.457819,3077520,-3833836,164285295,101947,83222,13533,61,ee5afe00,0.0,0.0,0.0,0.0,0.0,0.0
2026-05-25 09:59:38.470003,1779717578.470003,3030509,-3764465,164254614,96022,184877,15489,61,ee5afe00,0.0,0.0,0.0,0.0,0.0,0.0
2026-05-25 09:59:38.484966,1779717578.484966,3030509,-3764465,164254614,96022,184877,15489,61,ee5afe00,0.0,0.0,0.0,0.0,0.0,0.0
2026-05-25 09:59:38.492743,1779717578.492743,2804117,-3758393,164339208,108661,178691,47693,61,ee5afe00,0.0,0.0,0.0,0.0,0.0,0.0
2026-05-25 09:59:38.501805,1779717578.501805,2804117,-3758393,164339208,108661,178691,47693,61,ee5afe00,0.0,0.0,0.0,0.0,0.0,0.0
2026-05-25 09:59:38.510359,1779717578.510359,2665041,-3739914,164382796,90653,178025,46023,61,ee5afe00,0.0,0.0,0.0,0.0,0.0,0.0
2026-05-25 09:59:38.520672,1779717578.520672,2665041,-3739914,164382796,90653,178025,46023,61,ee5afe00,0.0,0.0,0.0,0.0,0.0,0.0
2026-05-25 09:59:38.528399,1779717578.528399,2450982,-3716504,164579820,83686,131209,44220,61,ee5afe00,0.0,0.0,0.0,0.0,0.0,0.0
2026-05-25 09:59:38.537229,1779717578.537229,2450982,-3716504,164579820,83686,131209,44220,61,ee5afe00,0.0,0.0,0.0,0.0,0.0,0.0
2026-05-25 09:59:38.545186,1779717578.545186,2438498,-3729102,164478172,102718,15266,17731,61,ee5afe00,0.0,0.0,0.0,0.0,0.0,0.0
2026-05-25 09:59:38.554518,1779717578.554518,2438498,-3729102,164478172,102718,15266,17731,61,ee5afe00,0.0,0.0,0.0,0.0,0.0,0.0
2026-05-25 09:59:38.562256,1779717578.562256,2469469,-3698593,164382139,40367,24836,11960,61,ee5afe00,0.0,0.0,0.0,0.0,0.0,0.0
2026-05-25 09:59:38.571042,1779717578.571042,2469469,-3698593,164382139,40367,24836,11960,61,ee5afe00,0.0,0.0,0.0,0.0,0.0,0.0
2026-05-25 09:59:38.578540,1779717578.578540,2529300,-3795075,164332554,-378,-33643,-12082,61,ee5afe00,0.0,0.0,0.0,0.0,0.0,0.0
2026-05-25 09:59:38.588350,1779717578.588350,2529300,-3795075,164332554,-378,-33643,-12082,61,ee5afe00,0.0,0.0,0.0,0.0,0.0,0.0
2026-05-25 09:59:38.596437,1779717578.596437,2928598,-3819045,164334939,1336,396,-16141,61,ee5afe00,0.0,0.0,0.0,0.0,0.0,0.0
2026-05-25 09:59:38.606160,1779717578.606160,2928598,-3819045,164334939,1336,396,-16141,61,ee5afe00,0.0,0.0,0.0,0.0,0.0,0.0
2026-05-25 09:59:38.614580,1779717578.614580,2959574,-3844460,164380565,58583,-42062,-27235,61,ee59fe00,0.0,0.0,0.0,0.0,0.0,0.0
2026-05-25 09:59:38.624644,1779717578.624644,2959574,-3844460,164380565,58583,-42062,-27235,61,ee59fe00,0.0,0.0,0.0,0.0,0.0,0.0
2026-05-25 09:59:38.632510,1779717578.632510,3139813,-3806246,164265736,134348,-46127,-2903,61,ee59fe00,0.0,0.0,0.0,0.0,0.0,0.0
2026-05-25 09:59:38.641990,1779717578.641990,3139813,-3806246,164265736,134348,-46127,-2903,61,ee59fe00,0.0,0.0,0.0,0.0,0.0,0.0
2026-05-25 09:59:38.650352,1779717578.650352,2865513,-3845982,164258323,145501,4656,6386,61,ee5afe00,0.0,0.0,0.0,0.0,0.0,0.0
2026-05-25 09:59:38.660748,1779717578.660748,2865513,-3845982,164258323,145501,4656,6386,61,ee5afe00,0.0,0.0,0.0,0.0,0.0,0.0
2026-05-25 09:59:38.668184,1779717578.668184,2858346,-3854573,164281638,95213,5152,-11509,61,ee5afe00,0.0,0.0,0.0,0.0,0.0,0.0
2026-05-25 09:59:38.676940,1779717578.676940,2858346,-3854573,164281638,95213,5152,-11509,61,ee5afe00,0.0,0.0,0.0,0.0,0.0,0.0
2026-05-25 09:59:38.684621,1779717578.684621,2660176,-3925476,164391989,53078,46060,-45130,61,ee5afe00,0.0,0.0,0.0,0.0,0.0,0.0
2026-05-25 09:59:38.694671,1779717578.694671,2660176,-3925476,164391989,53078,46060,-45130,61,ee5afe00,0.0,0.0,0.0,0.0,0.0,0.0
2026-05-25 09:59:38.703697,1779717578.703697,2747628,-3870225,164370348,35492,18977,-35193,61,ee5afe00,0.0,0.0,0.0,0.0,0.0,0.0
2026-05-25 09:59:38.714940,1779717578.714940,2747628,-3870225,164370348,35492,18977,-35193,61,ee5afe00,0.0,0.0,0.0,0.0,0.0,0.0
2026-05-25 09:59:38.723966,1779717578.723966,2736989,-3890639,164227848,8213,72735,-26595,61,ee59fe00,0.0,0.0,0.0,0.0,0.0,0.0
2026-05-25 09:59:38.734834,1779717578.734834,2736989,-3890639,164227848,8213,72735,-26595,61,ee59fe00,0.0,0.0,0.0,0.0,0.0,0.0
2026-05-25 09:59:38.743794,1779717578.743794,2974618,-3808299,164278114,-38255,132766,-27020,61,ee59fe00,0.0,0.0,0.0,0.0,0.0,0.0
2026-05-25 09:59:38.754597,1779717578.754597,2974618,-3808299,164278114,-38255,132766,-27020,61,ee59fe00,0.0,0.0,0.0,0.0,0.0,0.0
2026-05-25 09:59:38.761960,1779717578.761960,2977655,-3865425,164259956,-873,159784,6374,61,ee59fe00,0.0,0.0,0.0,0.0,0.0,0.0
2026-05-25 09:59:38.770605,1779717578.770605,2977655,-3865425,164259956,-873,159784,6374,61,ee59fe00,0.0,0.0,0.0,0.0,0.0,0.0
2026-05-25 09:59:38.778488,1779717578.778488,3081536,-3701736,164376694,17299,200364,-9129,61,ee59fe00,0.0,0.0,0.0,0.0,0.0,0.0
2026-05-25 09:59:38.787179,1779717578.787179,3081536,-3701736,164376694,17299,200364,-9129,61,ee59fe00,0.0,0.0,0.0,0.0,0.0,0.0
2026-05-25 09:59:38.794676,1779717578.794676,2764342,-3714490,164481513,40749,162271,20526,61,ee59fe00,0.0,0.0,0.0,0.0,0.0,0.0
2026-05-25 09:59:38.803948,1779717578.803948,2764342,-3714490,164481513,40749,162271,20526,61,ee59fe00,0.0,0.0,0.0,0.0,0.0,0.0
2026-05-25 09:59:38.811365,1779717578.811365,2701126,-3583771,164485596,39441,155757,15219,61,ee5afe00,0.0,0.0,0.0,0.0,0.0,0.0
2026-05-25 09:59:38.820910,1779717578.820910,2701126,-3583771,164485596,39441,155757,15219,61,ee5afe00,0.0,0.0,0.0,0.0,0.0,0.0
2026-05-25 09:59:38.828317,1779717578.828317,2323285,-3663060,164501438,22267,147029,11588,61,ee5afe00,0.0,0.0,0.0,0.0,0.0,0.0
2026-05-25 09:59:38.836907,1779717578.836907,2323285,-3663060,164501438,22267,147029,11588,61,ee5afe00,0.0,0.0,0.0,0.0,0.0,0.0
2026-05-25 09:59:38.844793,1779717578.844793,2467792,-3651321,164543790,22009,81758,-1234,61,ee5afe00,0.0,0.0,0.0,0.0,0.0,0.0
2026-05-25 09:59:38.854080,1779717578.854080,2467792,-3651321,164543790,22009,81758,-1234,61,ee5afe00,0.0,0.0,0.0,0.0,0.0,0.0
2026-05-25 09:59:38.861748,1779717578.861748,2501887,-3780456,164491020,24205,29102,-32429,61,ee5afe00,0.0,0.0,0.0,0.0,0.0,0.0
2026-05-25 09:59:38.871382,1779717578.871382,2501887,-3780456,164491020,24205,29102,-32429,61,ee5afe00,0.0,0.0,0.0,0.0,0.0,0.0
2026-05-25 09:59:38.881356,1779717578.881356,2673654,-3760858,164403251,50581,-57164,-15914,61,ee5afe00,0.0,0.0,0.0,0.0,0.0,0.0
2026-05-25 09:59:38.891091,1779717578.891091,2673654,-3760858,164403251,50581,-57164,-15914,61,ee5afe00,0.0,0.0,0.0,0.0,0.0,0.0
2026-05-25 09:59:38.898745,1779717578.898745,2797734,-3851652,164275196,39639,-27707,-14479,61,ee5afe00,0.0,0.0,0.0,0.0,0.0,0.0
2026-05-25 09:59:38.908335,1779717578.908335,2797734,-3851652,164275196,39639,-27707,-14479,61,ee5afe00,0.0,0.0,0.0,0.0,0.0,0.0
2026-05-25 09:59:38.917167,1779717578.917167,2862725,-3831835,164313717,37875,22977,9227,61,ee59fe00,0.0,0.0,0.0,0.0,0.0,0.0
2026-05-25 09:59:38.926889,1779717578.926889,2862725,-3831835,164313717,37875,22977,9227,61,ee59fe00,0.0,0.0,0.0,0.0,0.0,0.0
2026-05-25 09:59:38.934293,1779717578.934293,2895541,-3847399,164324287,31904,15641,18400,61,ee5afe00,0.0,0.0,0.0,0.0,0.0,0.0
2026-05-25 09:59:38.943494,1779717578.943494,2895541,-3847399,164324287,31904,15641,18400,61,ee5afe00,0.0,0.0,0.0,0.0,0.0,0.0
2026-05-25 09:59:38.952433,1779717578.952433,2812448,-3771757,164353165,8945,16966,-5160,61,ee5afe00,0.0,0.0,0.0,0.0,0.0,0.0
2026-05-25 09:59:38.963652,1779717578.963652,2812448,-3771757,164353165,8945,16966,-5160,61,ee5afe00,0.0,0.0,0.0,0.0,0.0,0.0
2026-05-25 09:59:38.971180,1779717578.971180,2790208,-3746995,164384888,-11449,-16834,-25896,61,ee5afe00,0.0,0.0,0.0,0.0,0.0,0.0
2026-05-25 09:59:38.980849,1779717578.980849,2790208,-3746995,164384888,-11449,-16834,-25896,61,ee5afe00,0.0,0.0,0.0,0.0,0.0,0.0
2026-05-25 09:59:38.988399,1779717578.988399,2783522,-3677097,164346734,-11773,1031,-56351,61,ee5afe00,0.0,0.0,0.0,0.0,0.0,0.0
2026-05-25 09:59:38.997883,1779717578.997883,2783522,-3677097,164346734,-11773,1031,-56351,61,ee5afe00,0.0,0.0,0.0,0.0,0.0,0.0
2026-05-25 09:59:39.006252,1779717579.006252,2839832,-3659081,164340714,-21902,14945,-63717,61,ee5afe00,0.0,0.0,0.0,0.0,0.0,0.0
2026-05-25 09:59:39.019038,1779717579.019038,2839832,-3659081,164340714,-21902,14945,-63717,61,ee5afe00,0.0,0.0,0.0,0.0,0.0,0.0
2026-05-25 09:59:39.028100,1779717579.028100,2858095,-3645120,164286042,12140,27447,-50483,61,ee59fe00,0.0,0.0,0.0,0.0,0.0,0.0
2026-05-25 09:59:39.037167,1779717579.037167,2858095,-3645120,164286042,12140,27447,-50483,61,ee59fe00,0.0,0.0,0.0,0.0,0.0,0.0
2026-05-25 09:59:39.045224,1779717579.045224,2845449,-3704114,164269714,3136,65777,-5988,61,ee59fe00,0.0,0.0,0.0,0.0,0.0,0.0
2026-05-25 09:59:39.054033,1779717579.054033,2845449,-3704114,164269714,3136,65777,-5988,61,ee59fe00,0.0,0.0,0.0,0.0,0.0,0.0
2026-05-25 09:59:39.063498,1779717579.063498,2834323,-3813707,164287349,21084,72050,4476,61,ee59fe00,0.0,0.0,0.0,0.0,0.0,0.0
2026-05-25 09:59:39.073099,1779717579.073099,2834323,-3813707,164287349,21084,72050,4476,61,ee59fe00,0.0,0.0,0.0,0.0,0.0,0.0
2026-05-25 09:59:39.081583,1779717579.081583,2807967,-3921655,164292291,-6831,101719,2071,61,ee59fe00,0.0,0.0,0.0,0.0,0.0,0.0
2026-05-25 09:59:39.091473,1779717579.091473,2807967,-3921655,164292291,-6831,101719,2071,61,ee59fe00,0.0,0.0,0.0,0.0,0.0,0.0
2026-05-25 09:59:39.102641,1779717579.102641,2818290,-3959725,164312204,-11753,91816,-38041,61,ee5afe00,0.0,0.0,0.0,0.0,0.0,0.0
2026-05-25 09:59:39.149564,1779717579.149564,2818290,-3959725,164312204,-11753,91816,-38041,61,ee5afe00,0.0,0.0,0.0,0.0,0.0,0.0
2026-05-25 09:59:39.174610,1779717579.174610,2839601,-3953901,164317616,-5542,72689,-54478,61,ee5afe00,0.0,0.0,0.0,0.0,0.0,0.0
2026-05-25 09:59:39.191690,1779717579.191690,2839601,-3953901,164317616,-5542,72689,-54478,61,ee5afe00,0.0,0.0,0.0,0.0,0.0,0.0
2026-05-25 09:59:39.208045,1779717579.208045,2904891,-3888489,164352465,29632,63818,-46992,61,ee5afe00,0.0,0.0,0.0,0.0,0.0,0.0
2026-05-25 09:59:39.227393,1779717579.227393,2904891,-3888489,164352465,29632,63818,-46992,61,ee5afe00,0.0,0.0,0.0,0.0,0.0,0.0
2026-05-25 09:59:39.241128,1779717579.241128,2713812,-3777260,164351917,36820,29885,-23034,61,ee5afe00,0.0,0.0,0.0,0.0,0.0,0.0
2026-05-25 09:59:39.255536,1779717579.255536,2713812,-3777260,164351917,36820,29885,-23034,61,ee5afe00,0.0,0.0,0.0,0.0,0.0,0.0
2026-05-25 09:59:39.267084,1779717579.267084,2774987,-3700182,164374035,25933,55676,-12714,61,ee5afe00,0.0,0.0,0.0,0.0,0.0,0.0
2026-05-25 09:59:39.279768,1779717579.279768,2774987,-3700182,164374035,25933,55676,-12714,61,ee5afe00,0.0,0.0,0.0,0.0,0.0,0.0
2026-05-25 09:59:39.289267,1779717579.289267,2499727,-3671217,164451664,21937,68025,9931,61,ee5afe00,0.0,0.0,0.0,0.0,0.0,0.0
2026-05-25 09:59:39.301063,1779717579.301063,2499727,-3671217,164451664,21937,68025,9931,61,ee5afe00,0.0,0.0,0.0,0.0,0.0,0.0
2026-05-25 09:59:39.310885,1779717579.310885,2698325,-3653531,164444902,38767,57562,-1204,61,ee59fe00,0.0,0.0,0.0,0.0,0.0,0.0
2026-05-25 09:59:39.322585,1779717579.322585,2698325,-3653531,164444902,38767,57562,-1204,61,ee59fe00,0.0,0.0,0.0,0.0,0.0,0.0
2026-05-25 09:59:39.331857,1779717579.331857,2641987,-3634655,164455249,18495,44300,-9797,61,ee59fe00,0.0,0.0,0.0,0.0,0.0,0.0
2026-05-25 09:59:39.343274,1779717579.343274,2641987,-3634655,164455249,18495,44300,-9797,61,ee59fe00,0.0,0.0,0.0,0.0,0.0,0.0
2026-05-25 09:59:39.354410,1779717579.354410,2892549,-3616322,164376586,60360,-22872,-41429,61,ee59fe00,0.0,0.0,0.0,0.0,0.0,0.0
2026-05-25 09:59:39.368770,1779717579.368770,2892549,-3616322,164376586,60360,-22872,-41429,61,ee59fe00,0.0,0.0,0.0,0.0,0.0,0.0
2026-05-25 09:59:39.380438,1779717579.380438,2889204,-3700678,164214891,54274,-11512,-26610,61,ee59fe00,0.0,0.0,0.0,0.0,0.0,0.0
2026-05-25 09:59:39.395992,1779717579.395992,2889204,-3700678,164214891,54274,-11512,-26610,61,ee59fe00,0.0,0.0,0.0,0.0,0.0,0.0
2026-05-25 09:59:39.404696,1779717579.404696,3010395,-3752388,164292059,47052,51280,-29647,61,ee59fe00,0.0,0.0,0.0,0.0,0.0,0.0
2026-05-25 09:59:39.414565,1779717579.414565,3010395,-3752388,164292059,47052,51280,-29647,61,ee59fe00,0.0,0.0,0.0,0.0,0.0,0.0
2026-05-25 09:59:39.421880,1779717579.421880,2817900,-3916240,164297510,64436,36711,3576,61,ee59fe00,0.0,0.0,0.0,0.0,0.0,0.0
2026-05-25 09:59:39.431528,1779717579.431528,2817900,-3916240,164297510,64436,36711,3576,61,ee59fe00,0.0,0.0,0.0,0.0,0.0,0.0
2026-05-25 09:59:39.439932,1779717579.439932,2826297,-3896854,164318543,47838,90098,3126,61,ee5afe00,0.0,0.0,0.0,0.0,0.0,0.0
2026-05-25 09:59:39.449854,1779717579.449854,2826297,-3896854,164318543,47838,90098,3126,61,ee5afe00,0.0,0.0,0.0,0.0,0.0,0.0
2026-05-25 09:59:39.464490,1779717579.464490,2699562,-3953725,164454096,64962,95078,-13691,61,ee59fe00,0.0,0.0,0.0,0.0,0.0,0.0
2026-05-25 09:59:39.479088,1779717579.479088,2699562,-3953725,164454096,64962,95078,-13691,61,ee59fe00,0.0,0.0,0.0,0.0,0.0,0.0
2026-05-25 09:59:39.491522,1779717579.491522,2835186,-3801325,164380793,89911,60727,-11147,61,ee59fe00,0.0,0.0,0.0,0.0,0.0,0.0
2026-05-25 09:59:39.507738,1779717579.507738,2835186,-3801325,164380793,89911,60727,-11147,61,ee59fe00,0.0,0.0,0.0,0.0,0.0,0.0
2026-05-25 09:59:39.523674,1779717579.523674,2779101,-3731891,164353664,79106,96812,-6102,61,ee59fe00,0.0,0.0,0.0,0.0,0.0,0.0
2026-05-25 09:59:39.540047,1779717579.540047,2779101,-3731891,164353664,79106,96812,-6102,61,ee59fe00,0.0,0.0,0.0,0.0,0.0,0.0
2026-05-25 09:59:39.555987,1779717579.555987,2815727,-3662218,164303762,68306,88748,-10573,61,ee59fe00,0.0,0.0,0.0,0.0,0.0,0.0
2026-05-25 09:59:39.572391,1779717579.572391,2815727,-3662218,164303762,68306,88748,-10573,61,ee59fe00,0.0,0.0,0.0,0.0,0.0,0.0
2026-05-25 09:59:39.581788,1779717579.581788,2831442,-3674149,164324696,-512,154843,-7607,61,ee59fe00,0.0,0.0,0.0,0.0,0.0,0.0
2026-05-25 09:59:39.592433,1779717579.592433,2831442,-3674149,164324696,-512,154843,-7607,61,ee59fe00,0.0,0.0,0.0,0.0,0.0,0.0
2026-05-25 09:59:39.604062,1779717579.604062,2777250,-3734479,164375961,19187,161688,-2174,61,ee59fe00,0.0,0.0,0.0,0.0,0.0,0.0
2026-05-25 09:59:39.615883,1779717579.615883,2777250,-3734479,164375961,19187,161688,-2174,61,ee59fe00,0.0,0.0,0.0,0.0,0.0,0.0
2026-05-25 09:59:39.623961,1779717579.623961,2730578,-3708294,164418081,29472,138340,-2485,61,ee59fe00,0.0,0.0,0.0,0.0,0.0,0.0
2026-05-25 09:59:39.633573,1779717579.633573,2730578,-3708294,164418081,29472,138340,-2485,61,ee59fe00,0.0,0.0,0.0,0.0,0.0,0.0
2026-05-25 09:59:39.648673,1779717579.648673,2696554,-3762952,164401374,69561,114787,-7014,61,ee5afe00,0.0,0.0,0.0,0.0,0.0,0.0
2026-05-25 09:59:39.658714,1779717579.658714,2696554,-3762952,164401374,69561,114787,-7014,61,ee5afe00,0.0,0.0,0.0,0.0,0.0,0.0
2026-05-25 09:59:39.670153,1779717579.670153,2696554,-3762952,164401374,69561,114787,-7014,61,ee5afe00,0.0,0.0,0.0,0.0,0.0,0.0
2026-05-25 09:59:39.676649,1779717579.676649,2645805,-3749419,164418945,51793,99850,6964,61,ee5afe00,0.0,0.0,0.0,0.0,0.0,0.0
2026-05-25 09:59:39.692285,1779717579.692285,2632926,-3744694,164381701,59574,39556,-626,61,ee5afe00,0.0,0.0,0.0,0.0,0.0,0.0
2026-05-25 09:59:39.710925,1779717579.710925,2632926,-3744694,164381701,59574,39556,-626,61,ee5afe00,0.0,0.0,0.0,0.0,0.0,0.0
2026-05-25 09:59:39.726297,1779717579.726297,2746125,-3751258,164341777,23614,40675,19923,61,ee5afe00,0.0,0.0,0.0,0.0,0.0,0.0
2026-05-25 09:59:39.745194,1779717579.745194,2746125,-3751258,164341777,23614,40675,19923,61,ee5afe00,0.0,0.0,0.0,0.0,0.0,0.0
2026-05-25 09:59:39.759934,1779717579.759934,2686901,-3798109,164353518,49990,-647,8400,61,ee5afe00,0.0,0.0,0.0,0.0,0.0,0.0
2026-05-25 09:59:39.778297,1779717579.778297,2686901,-3798109,164353518,49990,-647,8400,61,ee5afe00,0.0,0.0,0.0,0.0,0.0,0.0
2026-05-25 09:59:39.792910,1779717579.792910,2796764,-3785855,164328174,39243,6415,27137,61,ee5afe00,0.0,0.0,0.0,0.0,0.0,0.0
2026-05-25 09:59:39.811186,1779717579.811186,2796764,-3785855,164328174,39243,6415,27137,61,ee5afe00,0.0,0.0,0.0,0.0,0.0,0.0
2026-05-25 09:59:39.824895,1779717579.824895,2788600,-3824604,164379989,41152,17877,5389,61,ee59fe00,0.0,0.0,0.0,0.0,0.0,0.0
2026-05-25 09:59:39.842848,1779717579.842848,2788600,-3824604,164379989,41152,17877,5389,61,ee59fe00,0.0,0.0,0.0,0.0,0.0,0.0
2026-05-25 09:59:39.857073,1779717579.857073,2878041,-3840552,164343927,60068,46522,-4639,61,ee59fe00,0.0,0.0,0.0,0.0,0.0,0.0
2026-05-25 09:59:39.873044,1779717579.873044,2878041,-3840552,164343927,60068,46522,-4639,61,ee59fe00,0.0,0.0,0.0,0.0,0.0,0.0
2026-05-25 09:59:39.881180,1779717579.881180,2798657,-3877993,164351033,112809,50804,-11366,61,ee5afe00,0.0,0.0,0.0,0.0,0.0,0.0
2026-05-25 09:59:39.899516,1779717579.899516,2798657,-3877993,164351033,112809,50804,-11366,61,ee5afe00,0.0,0.0,0.0,0.0,0.0,0.0
2026-05-25 09:59:39.914196,1779717579.914196,2782186,-3857210,164330869,130799,43090,-2527,61,ee59fe00,0.0,0.0,0.0,0.0,0.0,0.0
2026-05-25 09:59:39.925948,1779717579.925948,2782186,-3857210,164330869,130799,43090,-2527,61,ee59fe00,0.0,0.0,0.0,0.0,0.0,0.0
2026-05-25 09:59:39.933833,1779717579.933833,2685814,-3848338,164325877,104185,28811,-2968,61,ee59fe00,0.0,0.0,0.0,0.0,0.0,0.0
2026-05-25 09:59:39.943104,1779717579.943104,2685814,-3848338,164325877,104185,28811,-2968,61,ee59fe00,0.0,0.0,0.0,0.0,0.0,0.0
2026-05-25 09:59:39.952095,1779717579.952095,2688908,-3791174,164320208,72841,2961,-2625,61,ee59fe00,0.0,0.0,0.0,0.0,0.0,0.0
2026-05-25 09:59:39.961450,1779717579.961450,2688908,-3791174,164320208,72841,2961,-2625,61,ee59fe00,0.0,0.0,0.0,0.0,0.0,0.0
2026-05-25 09:59:39.968602,1779717579.968602,2754041,-3717260,164298469,66500,-461,-27770,61,ee59fe00,0.0,0.0,0.0,0.0,0.0,0.0
2026-05-25 09:59:39.977132,1779717579.977132,2754041,-3717260,164298469,66500,-461,-27770,61,ee59fe00,0.0,0.0,0.0,0.0,0.0,0.0
2026-05-25 09:59:39.984773,1779717579.984773,2878168,-3674345,164358266,66065,11098,-35003,61,ee59fe00,0.0,0.0,0.0,0.0,0.0,0.0
2026-05-25 09:59:39.993994,1779717579.993994,2878168,-3674345,164358266,66065,11098,-35003,61,ee59fe00,0.0,0.0,0.0,0.0,0.0,0.0
2026-05-25 09:59:40.001430,1779717580.001430,2921970,-3679222,164378318,35429,52878,-38032,61,ee5afe00,0.0,0.0,0.0,0.0,0.0,0.0
2026-05-25 09:59:40.010533,1779717580.010533,2921970,-3679222,164378318,35429,52878,-38032,61,ee5afe00,0.0,0.0,0.0,0.0,0.0,0.0
2026-05-25 09:59:40.019324,1779717580.019324,2912414,-3769120,164355405,27569,98850,-52396,61,ee5afe00,0.0,0.0,0.0,0.0,0.0,0.0
2026-05-25 09:59:40.027808,1779717580.027808,2912414,-3769120,164355405,27569,98850,-52396,61,ee5afe00,0.0,0.0,0.0,0.0,0.0,0.0
2026-05-25 09:59:40.035932,1779717580.035932,2825091,-3839906,164312395,21905,135108,-38248,61,ee5afe00,0.0,0.0,0.0,0.0,0.0,0.0
2026-05-25 09:59:40.045797,1779717580.045797,2825091,-3839906,164312395,21905,135108,-38248,61,ee5afe00,0.0,0.0,0.0,0.0,0.0,0.0
2026-05-25 09:59:40.053733,1779717580.053733,2730784,-3888282,164327321,48116,160080,-52816,61,ee5afe00,0.0,0.0,0.0,0.0,0.0,0.0
2026-05-25 09:59:40.064948,1779717580.064948,2730784,-3888282,164327321,48116,160080,-52816,61,ee5afe00,0.0,0.0,0.0,0.0,0.0,0.0
2026-05-25 09:59:40.072913,1779717580.072913,2603575,-3882194,164382847,56912,110971,-28691,61,ee5afe00,0.0,0.0,0.0,0.0,0.0,0.0
2026-05-25 09:59:40.083043,1779717580.083043,2603575,-3882194,164382847,56912,110971,-28691,61,ee5afe00,0.0,0.0,0.0,0.0,0.0,0.0
2026-05-25 09:59:40.090875,1779717580.090875,2598917,-3867762,164420469,69819,51139,-53208,61,ee5afe00,0.0,0.0,0.0,0.0,0.0,0.0
2026-05-25 09:59:40.101120,1779717580.101120,2598917,-3867762,164420469,69819,51139,-53208,61,ee5afe00,0.0,0.0,0.0,0.0,0.0,0.0
2026-05-25 09:59:40.109490,1779717580.109490,2654228,-3813648,164419531,57213,31496,-40404,61,ee59fe00,0.0,0.0,0.0,0.0,0.0,0.0
2026-05-25 09:59:40.118742,1779717580.118742,2654228,-3813648,164419531,57213,31496,-40404,61,ee59fe00,0.0,0.0,0.0,0.0,0.0,0.0
2026-05-25 09:59:40.126412,1779717580.126412,2750517,-3734048,164381109,70770,18296,-55581,61,ee59fe00,0.0,0.0,0.0,0.0,0.0,0.0
2026-05-25 09:59:40.136078,1779717580.136078,2750517,-3734048,164381109,70770,18296,-55581,61,ee59fe00,0.0,0.0,0.0,0.0,0.0,0.0
2026-05-25 09:59:40.146631,1779717580.146631,2798182,-3700994,164322814,56917,36491,-37245,61,ee59fe00,0.0,0.0,0.0,0.0,0.0,0.0
2026-05-25 09:59:40.156190,1779717580.156190,2798182,-3700994,164322814,56917,36491,-37245,61,ee59fe00,0.0,0.0,0.0,0.0,0.0,0.0
2026-05-25 09:59:40.164413,1779717580.164413,2826425,-3656911,164283428,41258,47950,-18046,61,ee59fe00,0.0,0.0,0.0,0.0,0.0,0.0
2026-05-25 09:59:40.176066,1779717580.176066,2826425,-3656911,164283428,41258,47950,-18046,61,ee59fe00,0.0,0.0,0.0,0.0,0.0,0.0
2026-05-25 09:59:40.184453,1779717580.184453,2817320,-3655108,164275715,18353,89094,19051,61,ee59fe00,0.0,0.0,0.0,0.0,0.0,0.0
2026-05-25 09:59:40.195839,1779717580.195839,2817320,-3655108,164275715,18353,89094,19051,61,ee59fe00,0.0,0.0,0.0,0.0,0.0,0.0
2026-05-25 09:59:40.210009,1779717580.210009,2775164,-3722517,164322896,15880,90290,16861,61,ee5afe00,0.0,0.0,0.0,0.0,0.0,0.0
2026-05-25 09:59:40.227638,1779717580.227638,2775164,-3722517,164322896,15880,90290,16861,61,ee5afe00,0.0,0.0,0.0,0.0,0.0,0.0
2026-05-25 09:59:40.242129,1779717580.242129,2719891,-3745537,164404792,11202,107475,654,61,ee59fe00,0.0,0.0,0.0,0.0,0.0,0.0
2026-05-25 09:59:40.260119,1779717580.260119,2719891,-3745537,164404792,11202,107475,654,61,ee59fe00,0.0,0.0,0.0,0.0,0.0,0.0
2026-05-25 09:59:40.275497,1779717580.275497,2684721,-3828918,164424103,35203,76978,-25423,61,ee5afe00,0.0,0.0,0.0,0.0,0.0,0.0
2026-05-25 09:59:40.293730,1779717580.293730,2684721,-3828918,164424103,35203,76978,-25423,61,ee5afe00,0.0,0.0,0.0,0.0,0.0,0.0
2026-05-25 09:59:40.308461,1779717580.308461,2723992,-3867108,164438855,52460,49533,-28421,61,ee5afe00,0.0,0.0,0.0,0.0,0.0,0.0
2026-05-25 09:59:40.326857,1779717580.326857,2723992,-3867108,164438855,52460,49533,-28421,61,ee5afe00,0.0,0.0,0.0,0.0,0.0,0.0
2026-05-25 09:59:40.341881,1779717580.341881,2791375,-3866657,164345331,59371,33437,-30910,61,ee5afe00,0.0,0.0,0.0,0.0,0.0,0.0
2026-05-25 09:59:40.359318,1779717580.359318,2791375,-3866657,164345331,59371,33437,-30910,61,ee5afe00,0.0,0.0,0.0,0.0,0.0,0.0
2026-05-25 09:59:40.374049,1779717580.374049,2851337,-3867452,164277390,76948,36838,-11155,61,ee59fe00,0.0,0.0,0.0,0.0,0.0,0.0
2026-05-25 09:59:40.391732,1779717580.391732,2851337,-3867452,164277390,76948,36838,-11155,61,ee59fe00,0.0,0.0,0.0,0.0,0.0,0.0
2026-05-25 09:59:40.413062,1779717580.413062,2884027,-3848215,164251207,69087,85962,329,61,ee59fe00,0.0,0.0,0.0,0.0,0.0,0.0
2026-05-25 09:59:40.430503,1779717580.430503,2884027,-3848215,164251207,69087,85962,329,61,ee59fe00,0.0,0.0,0.0,0.0,0.0,0.0
2026-05-25 09:59:40.443582,1779717580.443582,2882433,-3832067,164229455,66212,120977,818,61,ee59fe00,0.0,0.0,0.0,0.0,0.0,0.0
2026-05-25 09:59:40.461236,1779717580.461236,2882433,-3832067,164229455,66212,120977,818,61,ee59fe00,0.0,0.0,0.0,0.0,0.0,0.0
2026-05-25 09:59:40.475439,1779717580.475439,2901573,-3767901,164268049,10807,182955,-6191,61,ee59fe00,0.0,0.0,0.0,0.0,0.0,0.0
2026-05-25 09:59:40.485581,1779717580.485581,2901573,-3767901,164268049,10807,182955,-6191,61,ee59fe00,0.0,0.0,0.0,0.0,0.0,0.0
2026-05-25 09:59:40.494008,1779717580.494008,2917866,-3748968,164269254,-18499,221023,-6578,61,ee59fe00,0.0,0.0,0.0,0.0,0.0,0.0
2026-05-25 09:59:40.511425,1779717580.511425,2917866,-3748968,164269254,-18499,221023,-6578,61,ee59fe00,0.0,0.0,0.0,0.0,0.0,0.0
2026-05-25 09:59:40.525496,1779717580.525496,2787617,-3670442,164325433,-49198,236013,11929,61,ee5afe00,0.0,0.0,0.0,0.0,0.0,0.0
2026-05-25 09:59:40.538984,1779717580.538984,2787617,-3670442,164325433,-49198,236013,11929,61,ee5afe00,0.0,0.0,0.0,0.0,0.0,0.0
2026-05-25 09:59:40.550572,1779717580.550572,2775425,-3668313,164375595,-28594,244476,29612,61,ee5afe00,0.0,0.0,0.0,0.0,0.0,0.0
2026-05-25 09:59:40.565810,1779717580.565810,2775425,-3668313,164375595,-28594,244476,29612,61,ee5afe00,0.0,0.0,0.0,0.0,0.0,0.0
2026-05-25 09:59:40.580675,1779717580.580675,2504215,-3656472,164469701,-18685,219237,37738,61,ee5afe00,0.0,0.0,0.0,0.0,0.0,0.0
2026-05-25 09:59:40.589854,1779717580.589854,2504215,-3656472,164469701,-18685,219237,37738,61,ee5afe00,0.0,0.0,0.0,0.0,0.0,0.0
2026-05-25 09:59:40.598399,1779717580.598399,2560007,-3684722,164436545,-29936,172137,16900,61,ee59fe00,0.0,0.0,0.0,0.0,0.0,0.0
2026-05-25 09:59:40.608677,1779717580.608677,2560007,-3684722,164436545,-29936,172137,16900,61,ee59fe00,0.0,0.0,0.0,0.0,0.0,0.0
2026-05-25 09:59:40.616416,1779717580.616416,2415423,-3729005,164499330,-72529,157874,12543,61,ee59fe00,0.0,0.0,0.0,0.0,0.0,0.0
2026-05-25 09:59:40.625844,1779717580.625844,2415423,-3729005,164499330,-72529,157874,12543,61,ee59fe00,0.0,0.0,0.0,0.0,0.0,0.0
2026-05-25 09:59:40.634254,1779717580.634254,2598675,-3751647,164432460,-19650,62515,-5209,61,ee59fe00,0.0,0.0,0.0,0.0,0.0,0.0
2026-05-25 09:59:40.644391,1779717580.644391,2598675,-3751647,164432460,-19650,62515,-5209,61,ee59fe00,0.0,0.0,0.0,0.0,0.0,0.0
2026-05-25 09:59:40.652344,1779717580.652344,2639307,-3819100,164292862,-17393,49392,-8405,61,ee59fe00,0.0,0.0,0.0,0.0,0.0,0.0
2026-05-25 09:59:40.661592,1779717580.661592,2639307,-3819100,164292862,-17393,49392,-8405,61,ee59fe00,0.0,0.0,0.0,0.0,0.0,0.0
2026-05-25 09:59:40.673775,1779717580.673775,2876015,-3809365,164316696,-4925,20770,-29633,61,ee5afe00,0.0,0.0,0.0,0.0,0.0,0.0
2026-05-25 09:59:40.693897,1779717580.693897,2876015,-3809365,164316696,-4925,20770,-29633,61,ee5afe00,0.0,0.0,0.0,0.0,0.0,0.0
2026-05-25 09:59:40.708016,1779717580.708016,2837162,-3925738,164248300,-24096,64782,11817,61,ee5afe00,0.0,0.0,0.0,0.0,0.0,0.0
2026-05-25 09:59:40.726663,1779717580.726663,2837162,-3925738,164248300,-24096,64782,11817,61,ee5afe00,0.0,0.0,0.0,0.0,0.0,0.0
2026-05-25 09:59:40.741680,1779717580.741680,2916354,-3906077,164289754,-16881,102376,16186,61,ee5afe00,0.0,0.0,0.0,0.0,0.0,0.0
2026-05-25 09:59:40.759524,1779717580.759524,2916354,-3906077,164289754,-16881,102376,16186,61,ee5afe00,0.0,0.0,0.0,0.0,0.0,0.0
2026-05-25 09:59:40.772341,1779717580.772341,2789641,-3952140,164420569,11185,144596,6405,61,ee59fe00,0.0,0.0,0.0,0.0,0.0,0.0
2026-05-25 09:59:40.781541,1779717580.781541,2789641,-3952140,164420569,11185,144596,6405,61,ee59fe00,0.0,0.0,0.0,0.0,0.0,0.0
2026-05-25 09:59:40.795141,1779717580.795141,2782054,-3862018,164415267,95205,69465,7153,61,ee59fe00,0.0,0.0,0.0,0.0,0.0,0.0
2026-05-25 09:59:40.814066,1779717580.814066,2782054,-3862018,164415267,95205,69465,7153,61,ee59fe00,0.0,0.0,0.0,0.0,0.0,0.0
2026-05-25 09:59:40.827882,1779717580.827882,2580772,-3776171,164394686,76889,68189,-6107,61,ee59fe00,0.0,0.0,0.0,0.0,0.0,0.0
2026-05-25 09:59:40.840361,1779717580.840361,2580772,-3776171,164394686,76889,68189,-6107,61,ee59fe00,0.0,0.0,0.0,0.0,0.0,0.0
2026-05-25 09:59:40.847692,1779717580.847692,2563876,-3724004,164357302,102833,-18185,-37367,61,ee59fe00,0.0,0.0,0.0,0.0,0.0,0.0
2026-05-25 09:59:40.856237,1779717580.856237,2563876,-3724004,164357302,102833,-18185,-37367,61,ee59fe00,0.0,0.0,0.0,0.0,0.0,0.0
2026-05-25 09:59:40.862979,1779717580.862979,2725644,-3652709,164332801,71316,5504,-27322,61,ee59fe00,0.0,0.0,0.0,0.0,0.0,0.0
2026-05-25 09:59:40.871868,1779717580.871868,2725644,-3652709,164332801,71316,5504,-27322,61,ee59fe00,0.0,0.0,0.0,0.0,0.0,0.0
2026-05-25 09:59:40.879627,1779717580.879627,2816572,-3624408,164317354,100247,-9830,-29138,61,ee59fe00,0.0,0.0,0.0,0.0,0.0,0.0
2026-05-25 09:59:40.888028,1779717580.888028,2816572,-3624408,164317354,100247,-9830,-29138,61,ee59fe00,0.0,0.0,0.0,0.0,0.0,0.0
2026-05-25 09:59:40.894679,1779717580.894679,2973397,-3625315,164238391,90385,16568,8323,61,ee59fe00,0.0,0.0,0.0,0.0,0.0,0.0
2026-05-25 09:59:40.902736,1779717580.902736,2973397,-3625315,164238391,90385,16568,8323,61,ee59fe00,0.0,0.0,0.0,0.0,0.0,0.0
2026-05-25 09:59:40.909323,1779717580.909323,2969350,-3702890,164202949,80097,64040,-17606,61,ee59fe00,0.0,0.0,0.0,0.0,0.0,0.0
2026-05-25 09:59:40.917919,1779717580.917919,2969350,-3702890,164202949,80097,64040,-17606,61,ee59fe00,0.0,0.0,0.0,0.0,0.0,0.0
2026-05-25 09:59:40.924696,1779717580.924696,2886721,-3775752,164308688,51030,101881,-21474,61,ee59fe00,0.0,0.0,0.0,0.0,0.0,0.0
2026-05-25 09:59:40.932692,1779717580.932692,2886721,-3775752,164308688,51030,101881,-21474,61,ee59fe00,0.0,0.0,0.0,0.0,0.0,0.0
2026-05-25 09:59:40.939151,1779717580.939151,2824249,-3829751,164302148,40638,92376,-46648,61,ee59fe00,0.0,0.0,0.0,0.0,0.0,0.0
2026-05-25 09:59:40.946895,1779717580.946895,2824249,-3829751,164302148,40638,92376,-46648,61,ee59fe00,0.0,0.0,0.0,0.0,0.0,0.0
2026-05-25 09:59:40.953345,1779717580.953345,2865211,-3857859,164298877,-23336,115320,-36408,61,ee59fe00,0.0,0.0,0.0,0.0,0.0,0.0
2026-05-25 09:59:40.961307,1779717580.961307,2865211,-3857859,164298877,-23336,115320,-36408,61,ee59fe00,0.0,0.0,0.0,0.0,0.0,0.0
2026-05-25 09:59:40.968036,1779717580.968036,2812619,-3947018,164293972,-31951,118154,-43098,61,ee59fe00,0.0,0.0,0.0,0.0,0.0,0.0
2026-05-25 09:59:40.976003,1779717580.976003,2812619,-3947018,164293972,-31951,118154,-43098,61,ee59fe00,0.0,0.0,0.0,0.0,0.0,0.0
2026-05-25 09:59:40.982521,1779717580.982521,2855990,-3944763,164348103,-26756,145142,-5682,61,ee59fe00,0.0,0.0,0.0,0.0,0.0,0.0
2026-05-25 09:59:40.991952,1779717580.991952,2855990,-3944763,164348103,-26756,145142,-5682,61,ee59fe00,0.0,0.0,0.0,0.0,0.0,0.0
2026-05-25 09:59:40.999374,1779717580.999374,2761538,-3937365,164392942,120,123121,-5131,61,ee5afe00,0.0,0.0,0.0,0.0,0.0,0.0
2026-05-25 09:59:41.008152,1779717581.008152,2761538,-3937365,164392942,120,123121,-5131,61,ee5afe00,0.0,0.0,0.0,0.0,0.0,0.0
2026-05-25 09:59:41.015267,1779717581.015267,2767604,-3810875,164484320,55607,125802,9931,61,ee5afe00,0.0,0.0,0.0,0.0,0.0,0.0
2026-05-25 09:59:41.023314,1779717581.023314,2767604,-3810875,164484320,55607,125802,9931,61,ee5afe00,0.0,0.0,0.0,0.0,0.0,0.0
2026-05-25 09:59:41.029848,1779717581.029848,2607693,-3798265,164448859,95365,63296,67,61,ee5afe00,0.0,0.0,0.0,0.0,0.0,0.0
2026-05-25 09:59:41.038975,1779717581.038975,2607693,-3798265,164448859,95365,63296,67,61,ee5afe00,0.0,0.0,0.0,0.0,0.0,0.0
2026-05-25 09:59:41.047636,1779717581.047636,2606146,-3755309,164511814,91775,47592,-20723,61,ee5afe00,0.0,0.0,0.0,0.0,0.0,0.0
2026-05-25 09:59:41.057114,1779717581.057114,2606146,-3755309,164511814,91775,47592,-20723,61,ee5afe00,0.0,0.0,0.0,0.0,0.0,0.0
2026-05-25 09:59:41.064305,1779717581.064305,2491726,-3824855,164459428,88684,6856,-38290,61,ee59fe00,0.0,0.0,0.0,0.0,0.0,0.0
2026-05-25 09:59:41.073087,1779717581.073087,2491726,-3824855,164459428,88684,6856,-38290,61,ee59fe00,0.0,0.0,0.0,0.0,0.0,0.0
2026-05-25 09:59:41.079877,1779717581.079877,2683719,-3766242,164384902,44157,-31203,-48811,61,ee59fe00,0.0,0.0,0.0,0.0,0.0,0.0
2026-05-25 09:59:41.088085,1779717581.088085,2683719,-3766242,164384902,44157,-31203,-48811,61,ee59fe00,0.0,0.0,0.0,0.0,0.0,0.0
2026-05-25 09:59:41.094729,1779717581.094729,2757888,-3765336,164345696,44817,-55161,-75097,61,ee59fe00,0.0,0.0,0.0,0.0,0.0,0.0
2026-05-25 09:59:41.102729,1779717581.102729,2757888,-3765336,164345696,44817,-55161,-75097,61,ee59fe00,0.0,0.0,0.0,0.0,0.0,0.0
2026-05-25 09:59:41.109120,1779717581.109120,2927881,-3713618,164330131,49020,-62173,-75524,61,ee59fe00,0.0,0.0,0.0,0.0,0.0,0.0
2026-05-25 09:59:41.117732,1779717581.117732,2927881,-3713618,164330131,49020,-62173,-75524,61,ee59fe00,0.0,0.0,0.0,0.0,0.0,0.0
2026-05-25 09:59:41.125231,1779717581.125231,2888307,-3740550,164296723,51236,-28566,-41720,61,ee59fe00,0.0,0.0,0.0,0.0,0.0,0.0
2026-05-25 09:59:41.134290,1779717581.134290,2888307,-3740550,164296723,51236,-28566,-41720,61,ee59fe00,0.0,0.0,0.0,0.0,0.0,0.0
2026-05-25 09:59:41.141059,1779717581.141059,2834775,-3769203,164353301,59326,16263,-5583,61,ee59fe00,0.0,0.0,0.0,0.0,0.0,0.0
2026-05-25 09:59:41.149091,1779717581.149091,2834775,-3769203,164353301,59326,16263,-5583,61,ee59fe00,0.0,0.0,0.0,0.0,0.0,0.0
2026-05-25 09:59:41.155648,1779717581.155648,2718244,-3816685,164364337,73568,19497,-2392,61,ee59fe00,0.0,0.0,0.0,0.0,0.0,0.0
2026-05-25 09:59:41.164174,1779717581.164174,2718244,-3816685,164364337,73568,19497,-2392,61,ee59fe00,0.0,0.0,0.0,0.0,0.0,0.0
2026-05-25 09:59:41.171262,1779717581.171262,2636021,-3847393,164453373,92499,-7692,-6855,61,ee59fe00,0.0,0.0,0.0,0.0,0.0,0.0
2026-05-25 09:59:41.179639,1779717581.179639,2636021,-3847393,164453373,92499,-7692,-6855,61,ee59fe00,0.0,0.0,0.0,0.0,0.0,0.0
2026-05-25 09:59:41.189003,1779717581.189003,2596210,-3886965,164421947,102913,-69912,-23705,61,ee59fe00,0.0,0.0,0.0,0.0,0.0,0.0
2026-05-25 09:59:41.198897,1779717581.198897,2596210,-3886965,164421947,102913,-69912,-23705,61,ee59fe00,0.0,0.0,0.0,0.0,0.0,0.0
2026-05-25 09:59:41.205858,1779717581.205858,2682286,-3904353,164377885,87035,-107713,-21710,61,ee59fe00,0.0,0.0,0.0,0.0,0.0,0.0
2026-05-25 09:59:41.214332,1779717581.214332,2682286,-3904353,164377885,87035,-107713,-21710,61,ee59fe00,0.0,0.0,0.0,0.0,0.0,0.0
2026-05-25 09:59:41.221826,1779717581.221826,2820061,-3851517,164303130,105279,-120006,-22874,61,ee59fe00,0.0,0.0,0.0,0.0,0.0,0.0
2026-05-25 09:59:41.234939,1779717581.234939,2820061,-3851517,164303130,105279,-120006,-22874,61,ee59fe00,0.0,0.0,0.0,0.0,0.0,0.0
2026-05-25 09:59:41.243035,1779717581.243035,2887097,-3746872,164182753,18109,-94807,-30355,61,ee59fe00,0.0,0.0,0.0,0.0,0.0,0.0
2026-05-25 09:59:41.253375,1779717581.253375,2887097,-3746872,164182753,18109,-94807,-30355,61,ee59fe00,0.0,0.0,0.0,0.0,0.0,0.0
2026-05-25 09:59:41.262424,1779717581.262424,3345875,-3812443,164203788,-35673,165105,-720,61,ee59fe00,0.0,0.0,0.0,0.0,0.0,0.0
2026-05-25 09:59:41.272856,1779717581.272856,3345875,-3812443,164203788,-35673,165105,-720,61,ee59fe00,0.0,0.0,0.0,0.0,0.0,0.0
2026-05-25 09:59:41.282644,1779717581.282644,2895085,-3841717,164180279,5252,69320,13331,61,ee59fe00,0.0,0.0,0.0,0.0,0.0,0.0
2026-05-25 09:59:41.300057,1779717581.300057,2895085,-3841717,164180279,5252,69320,13331,61,ee59fe00,0.0,0.0,0.0,0.0,0.0,0.0
2026-05-25 09:59:41.316874,1779717581.316874,3703423,-3703455,164117224,-37031,333987,-38242,61,ee59fe00,0.0,0.0,0.0,0.0,0.0,0.0
2026-05-25 09:59:41.339319,1779717581.339319,3703423,-3703455,164117224,-37031,333987,-38242,61,ee59fe00,0.0,0.0,0.0,0.0,0.0,0.0
2026-05-25 09:59:41.353879,1779717581.353879,2560899,-3707530,164382645,32711,205216,-34939,61,ee59fe00,0.0,0.0,0.0,0.0,0.0,0.0
2026-05-25 09:59:41.365607,1779717581.365607,2560899,-3707530,164382645,32711,205216,-34939,61,ee59fe00,0.0,0.0,0.0,0.0,0.0,0.0
2026-05-25 09:59:41.372754,1779717581.372754,3178761,-3359982,164442706,117243,239931,-42009,61,ee59fe00,0.0,0.0,0.0,0.0,0.0,0.0
2026-05-25 09:59:41.383049,1779717581.383049,3178761,-3359982,164442706,117243,239931,-42009,61,ee59fe00,0.0,0.0,0.0,0.0,0.0,0.0
2026-05-25 09:59:41.391040,1779717581.391040,1687933,-3632769,164548632,89236,202224,72094,61,ee5afe00,0.0,0.0,0.0,0.0,0.0,0.0
2026-05-25 09:59:41.400508,1779717581.400508,1687933,-3632769,164548632,89236,202224,72094,61,ee5afe00,0.0,0.0,0.0,0.0,0.0,0.0
2026-05-25 09:59:41.414368,1779717581.414368,2428758,-3440826,164520095,90302,12993,25164,61,ee5afe00,0.0,0.0,0.0,0.0,0.0,0.0
2026-05-25 09:59:41.460644,1779717581.460644,2428758,-3440826,164520095,90302,12993,25164,61,ee5afe00,0.0,0.0,0.0,0.0,0.0,0.0
2026-05-25 09:59:41.481952,1779717581.481952,1929016,-3936420,164537037,-74055,48259,67853,61,ee5afe00,0.0,0.0,0.0,0.0,0.0,0.0
2026-05-25 09:59:41.498182,1779717581.498182,1929016,-3936420,164537037,-74055,48259,67853,61,ee5afe00,0.0,0.0,0.0,0.0,0.0,0.0
2026-05-25 09:59:41.506442,1779717581.506442,2910713,-3939798,164462041,53507,-156336,-16505,61,ee5afe00,0.0,0.0,0.0,0.0,0.0,0.0
2026-05-25 09:59:41.515512,1779717581.515512,2910713,-3939798,164462041,53507,-156336,-16505,61,ee5afe00,0.0,0.0,0.0,0.0,0.0,0.0
2026-05-25 09:59:41.522456,1779717581.522456,2959725,-4272467,164218705,35017,-30886,16425,61,ee5afe00,0.0,0.0,0.0,0.0,0.0,0.0
2026-05-25 09:59:41.530864,1779717581.530864,2959725,-4272467,164218705,35017,-30886,16425,61,ee5afe00,0.0,0.0,0.0,0.0,0.0,0.0
2026-05-25 09:59:41.537982,1779717581.537982,3478981,-4161193,164000060,145678,-62189,-24117,61,ee5afe00,0.0,0.0,0.0,0.0,0.0,0.0
2026-05-25 09:59:41.546757,1779717581.546757,3478981,-4161193,164000060,145678,-62189,-24117,61,ee5afe00,0.0,0.0,0.0,0.0,0.0,0.0
2026-05-25 09:59:41.553938,1779717581.553938,3116762,-4135622,164126475,43818,248317,40339,61,ee5afe00,0.0,0.0,0.0,0.0,0.0,0.0
2026-05-25 09:59:41.563343,1779717581.563343,3116762,-4135622,164126475,43818,248317,40339,61,ee5afe00,0.0,0.0,0.0,0.0,0.0,0.0
2026-05-25 09:59:41.570603,1779717581.570603,2927364,-3991354,164283524,141486,155504,-9257,61,ee59fe00,0.0,0.0,0.0,0.0,0.0,0.0
2026-05-25 09:59:41.579765,1779717581.579765,2927364,-3991354,164283524,141486,155504,-9257,61,ee59fe00,0.0,0.0,0.0,0.0,0.0,0.0
2026-05-25 09:59:41.587162,1779717581.587162,2457449,-3788414,164564622,64350,287644,24183,61,ee59fe00,0.0,0.0,0.0,0.0,0.0,0.0
2026-05-25 09:59:41.596039,1779717581.596039,2457449,-3788414,164564622,64350,287644,24183,61,ee59fe00,0.0,0.0,0.0,0.0,0.0,0.0
2026-05-25 09:59:41.603367,1779717581.603367,2054509,-3685830,164683129,124218,-8777,-68257,61,ee59fe00,0.0,0.0,0.0,0.0,0.0,0.0
2026-05-25 09:59:41.612648,1779717581.612648,2054509,-3685830,164683129,124218,-8777,-68257,61,ee59fe00,0.0,0.0,0.0,0.0,0.0,0.0
2026-05-25 09:59:41.620355,1779717581.620355,2155377,-3497007,164655659,74481,-33489,-21311,61,ee59fe00,0.0,0.0,0.0,0.0,0.0,0.0
2026-05-25 09:59:41.629018,1779717581.629018,2155377,-3497007,164655659,74481,-33489,-21311,61,ee59fe00,0.0,0.0,0.0,0.0,0.0,0.0
2026-05-25 09:59:41.638622,1779717581.638622,2274454,-3527441,164424051,64584,-229878,-91704,61,ee59fe00,0.0,0.0,0.0,0.0,0.0,0.0
2026-05-25 09:59:41.655732,1779717581.655732,2274454,-3527441,164424051,64584,-229878,-91704,61,ee59fe00,0.0,0.0,0.0,0.0,0.0,0.0
2026-05-25 09:59:41.668089,1779717581.668089,2990183,-3511127,164388550,-31084,-97128,-4908,61,ee59fe00,0.0,0.0,0.0,0.0,0.0,0.0
2026-05-25 09:59:41.681626,1779717581.681626,2990183,-3511127,164388550,-31084,-97128,-4908,61,ee59fe00,0.0,0.0,0.0,0.0,0.0,0.0
2026-05-25 09:59:41.693370,1779717581.693370,3210944,-3719686,164066408,10534,-162248,-62043,61,ee5afe00,0.0,0.0,0.0,0.0,0.0,0.0
2026-05-25 09:59:41.703333,1779717581.703333,3210944,-3719686,164066408,10534,-162248,-62043,61,ee5afe00,0.0,0.0,0.0,0.0,0.0,0.0
2026-05-25 09:59:41.711875,1779717581.711875,3774214,-3771447,164109968,-40145,162030,8912,61,ee5afe00,0.0,0.0,0.0,0.0,0.0,0.0
2026-05-25 09:59:41.722938,1779717581.722938,3774214,-3771447,164109968,-40145,162030,8912,61,ee5afe00,0.0,0.0,0.0,0.0,0.0,0.0
2026-05-25 09:59:41.730457,1779717581.730457,3241422,-3991159,164104810,61710,157632,-35467,61,ee5afe00,0.0,0.0,0.0,0.0,0.0,0.0
2026-05-25 09:59:41.739847,1779717581.739847,3241422,-3991159,164104810,61710,157632,-35467,61,ee5afe00,0.0,0.0,0.0,0.0,0.0,0.0
2026-05-25 09:59:41.754365,1779717581.754365,3330969,-3867212,164298189,-9972,412228,-2067,61,ee59fe00,0.0,0.0,0.0,0.0,0.0,0.0
2026-05-25 09:59:41.772321,1779717581.772321,3330969,-3867212,164298189,-9972,412228,-2067,61,ee59fe00,0.0,0.0,0.0,0.0,0.0,0.0
2026-05-25 09:59:41.787737,1779717581.787737,2243538,-4083438,164552402,89256,273229,-42589,61,ee59fe00,0.0,0.0,0.0,0.0,0.0,0.0
2026-05-25 09:59:41.805793,1779717581.805793,2243538,-4083438,164552402,89256,273229,-42589,61,ee59fe00,0.0,0.0,0.0,0.0,0.0,0.0
2026-05-25 09:59:41.820253,1779717581.820253,2320477,-3849550,164656137,90158,229362,-15976,61,ee59fe00,0.0,0.0,0.0,0.0,0.0,0.0
2026-05-25 09:59:41.837926,1779717581.837926,2320477,-3849550,164656137,90158,229362,-15976,61,ee59fe00,0.0,0.0,0.0,0.0,0.0,0.0
2026-05-25 09:59:41.851917,1779717581.851917,1612645,-3989990,164665565,147612,15502,-38554,61,ee59fe00,0.0,0.0,0.0,0.0,0.0,0.0
2026-05-25 09:59:41.867468,1779717581.867468,1612645,-3989990,164665565,147612,15502,-38554,61,ee59fe00,0.0,0.0,0.0,0.0,0.0,0.0
2026-05-25 09:59:41.878696,1779717581.878696,2182385,-3639670,164610666,104537,-163360,-16667,61,ee59fe00,0.0,0.0,0.0,0.0,0.0,0.0
2026-05-25 09:59:41.892689,1779717581.892689,2182385,-3639670,164610666,104537,-163360,-16667,61,ee59fe00,0.0,0.0,0.0,0.0,0.0,0.0
2026-05-25 09:59:41.903668,1779717581.903668,2347632,-3791273,164372076,80736,-243624,-19102,61,ee59fe00,0.0,0.0,0.0,0.0,0.0,0.0
2026-05-25 09:59:41.916889,1779717581.916889,2347632,-3791273,164372076,80736,-243624,-19102,61,ee59fe00,0.0,0.0,0.0,0.0,0.0,0.0
2026-05-25 09:59:41.927335,1779717581.927335,3117812,-3591524,164222175,79266,-278531,28519,61,ee59fe00,0.0,0.0,0.0,0.0,0.0,0.0
2026-05-25 09:59:41.940926,1779717581.940926,3117812,-3591524,164222175,79266,-278531,28519,61,ee59fe00,0.0,0.0,0.0,0.0,0.0,0.0
2026-05-25 09:59:41.951117,1779717581.951117,3388774,-3782350,164045828,63197,-140271,16257,61,ee59fe00,0.0,0.0,0.0,0.0,0.0,0.0
2026-05-25 09:59:41.963956,1779717581.963956,3388774,-3782350,164045828,63197,-140271,16257,61,ee59fe00,0.0,0.0,0.0,0.0,0.0,0.0
2026-05-25 09:59:41.974620,1779717581.974620,3558359,-3716913,164254960,46848,12784,-11279,61,ee59fe00,0.0,0.0,0.0,0.0,0.0,0.0
2026-05-25 09:59:41.987607,1779717581.987607,3558359,-3716913,164254960,46848,12784,-11279,61,ee59fe00,0.0,0.0,0.0,0.0,0.0,0.0
2026-05-25 09:59:41.997932,1779717581.997932,3295368,-3854131,164228768,113156,104957,-27566,61,ee59fe00,0.0,0.0,0.0,0.0,0.0,0.0
2026-05-25 09:59:42.010679,1779717582.010679,3295368,-3854131,164228768,113156,104957,-27566,61,ee59fe00,0.0,0.0,0.0,0.0,0.0,0.0
2026-05-25 09:59:42.020981,1779717582.020981,2890695,-3676483,164506975,80612,210171,-37418,61,ee59fe00,0.0,0.0,0.0,0.0,0.0,0.0
2026-05-25 09:59:42.033840,1779717582.033840,2890695,-3676483,164506975,80612,210171,-37418,61,ee59fe00,0.0,0.0,0.0,0.0,0.0,0.0
2026-05-25 09:59:42.044422,1779717582.044422,2423191,-3642679,164327132,98702,136017,-40115,61,ee5afe00,0.0,0.0,0.0,0.0,0.0,0.0
2026-05-25 09:59:42.057436,1779717582.057436,2423191,-3642679,164327132,98702,136017,-40115,61,ee5afe00,0.0,0.0,0.0,0.0,0.0,0.0
2026-05-25 09:59:42.067800,1779717582.067800,2328616,-3469509,164581424,-182,188749,-24808,61,ee5afe00,0.0,0.0,0.0,0.0,0.0,0.0
2026-05-25 09:59:42.081399,1779717582.081399,2328616,-3469509,164581424,-182,188749,-24808,61,ee5afe00,0.0,0.0,0.0,0.0,0.0,0.0
2026-05-25 09:59:42.092553,1779717582.092553,2128199,-3673007,164543010,36262,18453,-9154,61,ee59fe00,0.0,0.0,0.0,0.0,0.0,0.0
2026-05-25 09:59:42.105646,1779717582.105646,2128199,-3673007,164543010,36262,18453,-9154,61,ee59fe00,0.0,0.0,0.0,0.0,0.0,0.0
2026-05-25 09:59:42.116887,1779717582.116887,2615643,-3635568,164475672,-33185,-13743,6389,61,ee59fe00,0.0,0.0,0.0,0.0,0.0,0.0
2026-05-25 09:59:42.132274,1779717582.132274,2615643,-3635568,164475672,-33185,-13743,6389,61,ee59fe00,0.0,0.0,0.0,0.0,0.0,0.0
2026-05-25 09:59:42.146641,1779717582.146641,2776923,-3966509,164260558,-32069,-99358,-1271,61,ee59fe00,0.0,0.0,0.0,0.0,0.0,0.0
2026-05-25 09:59:42.163683,1779717582.163683,2776923,-3966509,164260558,-32069,-99358,-1271,61,ee59fe00,0.0,0.0,0.0,0.0,0.0,0.0
2026-05-25 09:59:42.177795,1779717582.177795,3385880,-3986261,164124355,-49748,-21457,33311,61,ee59fe00,0.0,0.0,0.0,0.0,0.0,0.0
2026-05-25 09:59:42.195634,1779717582.195634,3385880,-3986261,164124355,-49748,-21457,33311,61,ee59fe00,0.0,0.0,0.0,0.0,0.0,0.0
2026-05-25 09:59:42.203612,1779717582.203612,3440279,-4219051,164138409,11570,71647,5463,61,ee59fe00,0.0,0.0,0.0,0.0,0.0,0.0
2026-05-25 09:59:42.221827,1779717582.221827,3440279,-4219051,164138409,11570,71647,5463,61,ee59fe00,0.0,0.0,0.0,0.0,0.0,0.0
2026-05-25 09:59:42.231652,1779717582.231652,3569832,-4066071,164129007,95072,155742,4087,61,ee59fe00,0.0,0.0,0.0,0.0,0.0,0.0
2026-05-25 09:59:42.240815,1779717582.240815,3569832,-4066071,164129007,95072,155742,4087,61,ee59fe00,0.0,0.0,0.0,0.0,0.0,0.0
2026-05-25 09:59:42.248630,1779717582.248630,2951696,-3953787,164274701,126757,283948,891,61,ee59fe00,0.0,0.0,0.0,0.0,0.0,0.0
2026-05-25 09:59:42.260105,1779717582.260105,2951696,-3953787,164274701,126757,283948,891,61,ee59fe00,0.0,0.0,0.0,0.0,0.0,0.0
2026-05-25 09:59:42.267336,1779717582.267336,2423005,-3659139,164446824,124893,273974,3493,61,ee59fe00,0.0,0.0,0.0,0.0,0.0,0.0
2026-05-25 09:59:42.278535,1779717582.278535,2423005,-3659139,164446824,124893,273974,3493,61,ee59fe00,0.0,0.0,0.0,0.0,0.0,0.0
2026-05-25 09:59:42.286704,1779717582.286704,1874471,-3482569,164729785,41565,280191,1196,61,ee59fe00,0.0,0.0,0.0,0.0,0.0,0.0
2026-05-25 09:59:42.303412,1779717582.303412,1874471,-3482569,164729785,41565,280191,1196,61,ee59fe00,0.0,0.0,0.0,0.0,0.0,0.0
2026-05-25 09:59:42.317652,1779717582.317652,1679303,-3381337,164793859,33266,9933,-17808,61,ee5afe00,0.0,0.0,0.0,0.0,0.0,0.0
2026-05-25 09:59:42.336019,1779717582.336019,1679303,-3381337,164793859,33266,9933,-17808,61,ee5afe00,0.0,0.0,0.0,0.0,0.0,0.0
2026-05-25 09:59:42.350016,1779717582.350016,2185121,-3461191,164749248,-285,-104198,-27153,61,ee59fe00,0.0,0.0,0.0,0.0,0.0,0.0
2026-05-25 09:59:42.366640,1779717582.366640,2185121,-3461191,164749248,-285,-104198,-27153,61,ee59fe00,0.0,0.0,0.0,0.0,0.0,0.0
2026-05-25 09:59:42.380191,1779717582.380191,2476728,-3642091,164370935,22750,-324877,-16505,61,ee59fe00,0.0,0.0,0.0,0.0,0.0,0.0
2026-05-25 09:59:42.396505,1779717582.396505,2476728,-3642091,164370935,22750,-324877,-16505,61,ee59fe00,0.0,0.0,0.0,0.0,0.0,0.0
2026-05-25 09:59:42.410075,1779717582.410075,3357490,-3819807,164272342,-19222,-155328,-33456,61,ee59fe00,0.0,0.0,0.0,0.0,0.0,0.0
2026-05-25 09:59:42.422146,1779717582.422146,3357490,-3819807,164272342,-19222,-155328,-33456,61,ee59fe00,0.0,0.0,0.0,0.0,0.0,0.0
2026-05-25 09:59:42.429745,1779717582.429745,3180998,-4142653,164195755,103679,-205754,39,61,ee59fe00,0.0,0.0,0.0,0.0,0.0,0.0
2026-05-25 09:59:42.439420,1779717582.439420,3180998,-4142653,164195755,103679,-205754,39,61,ee59fe00,0.0,0.0,0.0,0.0,0.0,0.0
2026-05-25 09:59:42.448854,1779717582.448854,3500380,-4195611,164288670,173932,6839,25300,61,ee59fe00,0.0,0.0,0.0,0.0,0.0,0.0
2026-05-25 09:59:42.457780,1779717582.457780,3500380,-4195611,164288670,173932,6839,25300,61,ee59fe00,0.0,0.0,0.0,0.0,0.0,0.0
2026-05-25 09:59:42.465292,1779717582.465292,2498343,-4453416,164228526,217971,-75809,46164,61,ee59fe00,0.0,0.0,0.0,0.0,0.0,0.0
2026-05-25 09:59:42.480306,1779717582.480306,2498343,-4453416,164228526,217971,-75809,46164,61,ee59fe00,0.0,0.0,0.0,0.0,0.0,0.0
2026-05-25 09:59:42.491643,1779717582.491643,2719168,-4123355,164447412,119924,3388,-23974,61,ee59fe00,0.0,0.0,0.0,0.0,0.0,0.0
2026-05-25 09:59:42.500475,1779717582.500475,2719168,-4123355,164447412,119924,3388,-23974,61,ee59fe00,0.0,0.0,0.0,0.0,0.0,0.0
2026-05-25 09:59:42.508622,1779717582.508622,2043522,-4163427,164402009,115398,-131179,-56129,61,ee59fe00,0.0,0.0,0.0,0.0,0.0,0.0
2026-05-25 09:59:42.522748,1779717582.522748,2043522,-4163427,164402009,115398,-131179,-56129,61,ee59fe00,0.0,0.0,0.0,0.0,0.0,0.0
2026-05-25 09:59:42.536541,1779717582.536541,2748898,-3675203,164546536,93108,-153166,-101341,61,ee59fe00,0.0,0.0,0.0,0.0,0.0,0.0
2026-05-25 09:59:42.551105,1779717582.551105,2748898,-3675203,164546536,93108,-153166,-101341,61,ee59fe00,0.0,0.0,0.0,0.0,0.0,0.0
2026-05-25 09:59:42.558802,1779717582.558802,2677877,-3702399,164427882,127108,-221184,-86064,61,ee59fe00,0.0,0.0,0.0,0.0,0.0,0.0
2026-05-25 09:59:42.567821,1779717582.567821,2677877,-3702399,164427882,127108,-221184,-86064,61,ee59fe00,0.0,0.0,0.0,0.0,0.0,0.0
2026-05-25 09:59:42.575041,1779717582.575041,3276030,-3345660,164356065,158276,-158634,-21307,61,ee59fe00,0.0,0.0,0.0,0.0,0.0,0.0
2026-05-25 09:59:42.583753,1779717582.583753,3276030,-3345660,164356065,158276,-158634,-21307,61,ee59fe00,0.0,0.0,0.0,0.0,0.0,0.0
2026-05-25 09:59:42.597032,1779717582.597032,2805603,-3525272,164264248,168847,-92032,32052,61,ee59fe00,0.0,0.0,0.0,0.0,0.0,0.0
2026-05-25 09:59:42.610740,1779717582.610740,2805603,-3525272,164264248,168847,-92032,32052,61,ee59fe00,0.0,0.0,0.0,0.0,0.0,0.0
2026-05-25 09:59:42.621137,1779717582.621137,2830775,-3487217,164515157,199908,-73587,38623,61,ee59fe00,0.0,0.0,0.0,0.0,0.0,0.0
2026-05-25 09:59:42.634085,1779717582.634085,2830775,-3487217,164515157,199908,-73587,38623,61,ee59fe00,0.0,0.0,0.0,0.0,0.0,0.0
2026-05-25 09:59:42.650176,1779717582.650176,2188054,-3752921,164592888,218240,-140308,39030,61,ee59fe00,0.0,0.0,0.0,0.0,0.0,0.0
2026-05-25 09:59:42.665773,1779717582.665773,2188054,-3752921,164592888,218240,-140308,39030,61,ee59fe00,0.0,0.0,0.0,0.0,0.0,0.0
2026-05-25 09:59:42.675450,1779717582.675450,2246251,-3665920,164703958,233123,-275572,-11009,61,ee59fe00,0.0,0.0,0.0,0.0,0.0,0.0
2026-05-25 09:59:42.684252,1779717582.684252,2246251,-3665920,164703958,233123,-275572,-11009,61,ee59fe00,0.0,0.0,0.0,0.0,0.0,0.0
2026-05-25 09:59:42.692332,1779717582.692332,2120935,-3803625,164439354,179416,-380528,-22018,61,ee59fe00,0.0,0.0,0.0,0.0,0.0,0.0
2026-05-25 09:59:42.710270,1779717582.710270,2120935,-3803625,164439354,179416,-380528,-22018,61,ee59fe00,0.0,0.0,0.0,0.0,0.0,0.0
2026-05-25 09:59:42.724685,1779717582.724685,2758671,-3683419,164388925,74244,-365111,-89942,61,ee59fe00,0.0,0.0,0.0,0.0,0.0,0.0
2026-05-25 09:59:42.742180,1779717582.742180,2758671,-3683419,164388925,74244,-365111,-89942,61,ee59fe00,0.0,0.0,0.0,0.0,0.0,0.0
2026-05-25 09:59:42.756302,1779717582.756302,2898589,-3820823,164226136,78105,-352236,-56923,61,ee59fe00,0.0,0.0,0.0,0.0,0.0,0.0
2026-05-25 09:59:42.772972,1779717582.772972,2898589,-3820823,164226136,78105,-352236,-56923,61,ee59fe00,0.0,0.0,0.0,0.0,0.0,0.0
2026-05-25 09:59:42.786671,1779717582.786671,3388843,-3626195,164230966,90464,-272957,-29850,61,ee59fe00,0.0,0.0,0.0,0.0,0.0,0.0
2026-05-25 09:59:42.804436,1779717582.804436,3388843,-3626195,164230966,90464,-272957,-29850,61,ee59fe00,0.0,0.0,0.0,0.0,0.0,0.0
2026-05-25 09:59:42.818380,1779717582.818380,3115241,-3833963,164153601,130126,-185416,51059,61,ee59fe00,0.0,0.0,0.0,0.0,0.0,0.0
2026-05-25 09:59:42.834989,1779717582.834989,3115241,-3833963,164153601,130126,-185416,51059,61,ee59fe00,0.0,0.0,0.0,0.0,0.0,0.0
2026-05-25 09:59:42.847923,1779717582.847923,3105643,-3750988,164309349,109844,-120077,50396,61,ee59fe00,0.0,0.0,0.0,0.0,0.0,0.0
2026-05-25 09:59:42.860806,1779717582.860806,3105643,-3750988,164309349,109844,-120077,50396,61,ee59fe00,0.0,0.0,0.0,0.0,0.0,0.0
2026-05-25 09:59:42.872666,1779717582.872666,2704884,-4010886,164252333,45999,-81134,45640,61,ee59fe00,0.0,0.0,0.0,0.0,0.0,0.0
2026-05-25 09:59:42.886290,1779717582.886290,2704884,-4010886,164252333,45999,-81134,45640,61,ee59fe00,0.0,0.0,0.0,0.0,0.0,0.0
2026-05-25 09:59:42.897663,1779717582.897663,2867370,-3870323,164428583,15037,-43424,-19290,61,ee59fe00,0.0,0.0,0.0,0.0,0.0,0.0
2026-05-25 09:59:42.909721,1779717582.909721,2867370,-3870323,164428583,15037,-43424,-19290,61,ee59fe00,0.0,0.0,0.0,0.0,0.0,0.0
2026-05-25 09:59:42.919944,1779717582.919944,2917481,-3904439,164283487,10745,-50503,-42530,61,ee59fe00,0.0,0.0,0.0,0.0,0.0,0.0
2026-05-25 09:59:42.928104,1779717582.928104,2917481,-3904439,164283487,10745,-50503,-42530,61,ee59fe00,0.0,0.0,0.0,0.0,0.0,0.0
2026-05-25 09:59:42.934571,1779717582.934571,3414849,-3675938,164266053,13846,31701,-56190,61,ee59fe00,0.0,0.0,0.0,0.0,0.0,0.0
2026-05-25 09:59:42.949184,1779717582.949184,3414849,-3675938,164266053,13846,31701,-56190,61,ee59fe00,0.0,0.0,0.0,0.0,0.0,0.0
2026-05-25 09:59:42.961417,1779717582.961417,3385747,-3650968,164141268,34904,106959,-15379,61,ee59fe00,0.0,0.0,0.0,0.0,0.0,0.0
2026-05-25 09:59:42.981716,1779717582.981716,3385747,-3650968,164141268,34904,106959,-15379,61,ee59fe00,0.0,0.0,0.0,0.0,0.0,0.0
2026-05-25 09:59:42.991597,1779717582.991597,3505446,-3543101,164067964,10519,290390,5778,61,ee59fe00,0.0,0.0,0.0,0.0,0.0,0.0
2026-05-25 09:59:43.006948,1779717583.006948,3505446,-3543101,164067964,10519,290390,5778,61,ee59fe00,0.0,0.0,0.0,0.0,0.0,0.0
2026-05-25 09:59:43.014807,1779717583.014807,2995710,-3656289,164126506,-101360,393832,43882,61,ee59fe00,0.0,0.0,0.0,0.0,0.0,0.0
2026-05-25 09:59:43.025178,1779717583.025178,2995710,-3656289,164126506,-101360,393832,43882,61,ee59fe00,0.0,0.0,0.0,0.0,0.0,0.0
2026-05-25 09:59:43.039653,1779717583.039653,3216568,-3843115,164252741,-154314,561371,21716,61,ee59fe00,0.0,0.0,0.0,0.0,0.0,0.0
2026-05-25 09:59:43.057583,1779717583.057583,3216568,-3843115,164252741,-154314,561371,21716,61,ee59fe00,0.0,0.0,0.0,0.0,0.0,0.0
2026-05-25 09:59:43.067135,1779717583.067135,2667951,-4062976,164385674,-146669,533797,9894,61,ee59fe00,0.0,0.0,0.0,0.0,0.0,0.0
2026-05-25 09:59:43.076375,1779717583.076375,2667951,-4062976,164385674,-146669,533797,9894,61,ee59fe00,0.0,0.0,0.0,0.0,0.0,0.0
2026-05-25 09:59:43.090498,1779717583.090498,3388807,-3949461,164509876,-43666,562956,-69789,61,ee59fe00,0.0,0.0,0.0,0.0,0.0,0.0
2026-05-25 09:59:43.109722,1779717583.109722,3388807,-3949461,164509876,-43666,562956,-69789,61,ee59fe00,0.0,0.0,0.0,0.0,0.0,0.0
2026-05-25 09:59:43.118283,1779717583.118283,2639003,-3764492,164541178,54617,509113,-40979,61,ee59fe00,0.0,0.0,0.0,0.0,0.0,0.0
2026-05-25 09:59:43.128898,1779717583.128898,2639003,-3764492,164541178,54617,509113,-40979,61,ee59fe00,0.0,0.0,0.0,0.0,0.0,0.0
2026-05-25 09:59:43.137686,1779717583.137686,2983396,-3251759,164677862,270432,393385,-3437,61,ee59fe00,0.0,0.0,0.0,0.0,0.0,0.0
2026-05-25 09:59:43.146442,1779717583.146442,2983396,-3251759,164677862,270432,393385,-3437,61,ee59fe00,0.0,0.0,0.0,0.0,0.0,0.0
2026-05-25 09:59:43.155957,1779717583.155957,1664264,-3268316,164728276,265901,341663,131014,61,ee59fe00,0.0,0.0,0.0,0.0,0.0,0.0
2026-05-25 09:59:43.165633,1779717583.165633,1664264,-3268316,164728276,265901,341663,131014,61,ee59fe00,0.0,0.0,0.0,0.0,0.0,0.0
2026-05-25 09:59:43.173477,1779717583.173477,1812616,-3164310,164771032,248608,65092,73152,61,ee59fe00,0.0,0.0,0.0,0.0,0.0,0.0
2026-05-25 09:59:43.182651,1779717583.182651,1812616,-3164310,164771032,248608,65092,73152,61,ee59fe00,0.0,0.0,0.0,0.0,0.0,0.0
2026-05-25 09:59:43.189639,1779717583.189639,1339573,-3593008,164823779,52693,-52108,65557,61,ee59fe00,0.0,0.0,0.0,0.0,0.0,0.0
2026-05-25 09:59:43.204902,1779717583.204902,1339573,-3593008,164823779,52693,-52108,65557,61,ee59fe00,0.0,0.0,0.0,0.0,0.0,0.0
2026-05-25 09:59:43.211073,1779717583.211073,2321381,-3753680,164630766,104888,-367981,-88433,61,ee59fe00,0.0,0.0,0.0,0.0,0.0,0.0
2026-05-25 09:59:43.218748,1779717583.218748,2321381,-3753680,164630766,104888,-367981,-88433,61,ee59fe00,0.0,0.0,0.0,0.0,0.0,0.0
2026-05-25 09:59:43.226116,1779717583.226116,2892447,-4102979,164363893,57810,-278441,-83895,61,ee59fe00,0.0,0.0,0.0,0.0,0.0,0.0
2026-05-25 09:59:43.233535,1779717583.233535,2892447,-4102979,164363893,57810,-278441,-83895,61,ee59fe00,0.0,0.0,0.0,0.0,0.0,0.0
2026-05-25 09:59:43.239663,1779717583.239663,3755887,-4150305,163948796,187526,-316231,-118055,61,ee59fe00,0.0,0.0,0.0,0.0,0.0,0.0
2026-05-25 09:59:43.246913,1779717583.246913,3755887,-4150305,163948796,187526,-316231,-118055,61,ee59fe00,0.0,0.0,0.0,0.0,0.0,0.0
2026-05-25 09:59:43.252718,1779717583.252718,3763112,-4088455,163886509,90638,94192,11236,61,ee59fe00,0.0,0.0,0.0,0.0,0.0,0.0
2026-05-25 09:59:43.260364,1779717583.260364,3763112,-4088455,163886509,90638,94192,11236,61,ee59fe00,0.0,0.0,0.0,0.0,0.0,0.0
2026-05-25 09:59:43.266402,1779717583.266402,3312328,-4111285,164017050,189128,94083,13754,61,ee59fe00,0.0,0.0,0.0,0.0,0.0,0.0
2026-05-25 09:59:43.274673,1779717583.274673,3312328,-4111285,164017050,189128,94083,13754,61,ee59fe00,0.0,0.0,0.0,0.0,0.0,0.0
2026-05-25 09:59:43.283333,1779717583.283333,2790712,-3940720,164329664,103067,305689,75685,61,ee59fe00,0.0,0.0,0.0,0.0,0.0,0.0
2026-05-25 09:59:43.292648,1779717583.292648,2790712,-3940720,164329664,103067,305689,75685,61,ee59fe00,0.0,0.0,0.0,0.0,0.0,0.0
2026-05-25 09:59:43.299079,1779717583.299079,2163126,-3905243,164527107,133309,83560,-50573,61,ee59fe00,0.0,0.0,0.0,0.0,0.0,0.0
2026-05-25 09:59:43.306283,1779717583.306283,2163126,-3905243,164527107,133309,83560,-50573,61,ee59fe00,0.0,0.0,0.0,0.0,0.0,0.0
2026-05-25 09:59:43.312012,1779717583.312012,2440596,-3567073,164564876,40432,99071,-56177,61,ee59fe00,0.0,0.0,0.0,0.0,0.0,0.0
2026-05-25 09:59:43.319114,1779717583.319114,2440596,-3567073,164564876,40432,99071,-56177,61,ee59fe00,0.0,0.0,0.0,0.0,0.0,0.0
2026-05-25 09:59:43.324735,1779717583.324735,2693939,-3509144,164365045,56057,-15693,-118051,61,ee59fe00,0.0,0.0,0.0,0.0,0.0,0.0
2026-05-25 09:59:43.331810,1779717583.331810,2693939,-3509144,164365045,56057,-15693,-118051,61,ee59fe00,0.0,0.0,0.0,0.0,0.0,0.0
2026-05-25 09:59:43.337504,1779717583.337504,3545076,-3340481,164132762,-5335,134415,-20266,61,ee59fe00,0.0,0.0,0.0,0.0,0.0,0.0
2026-05-25 09:59:43.344595,1779717583.344595,3545076,-3340481,164132762,-5335,134415,-20266,61,ee59fe00,0.0,0.0,0.0,0.0,0.0,0.0
2026-05-25 09:59:43.351756,1779717583.351756,3670604,-3482051,163914184,23037,277165,23898,61,ee59fe00,0.0,0.0,0.0,0.0,0.0,0.0
2026-05-25 09:59:43.360537,1779717583.360537,3670604,-3482051,163914184,23037,277165,23898,61,ee59fe00,0.0,0.0,0.0,0.0,0.0,0.0
2026-05-25 09:59:43.366956,1779717583.366956,3759632,-3519524,164001313,-50392,538988,120151,61,ee59fe00,0.0,0.0,0.0,0.0,0.0,0.0
2026-05-25 09:59:43.374954,1779717583.374954,3759632,-3519524,164001313,-50392,538988,120151,61,ee59fe00,0.0,0.0,0.0,0.0,0.0,0.0
2026-05-25 09:59:43.380856,1779717583.380856,2965928,-3804632,164207031,-38397,630811,88380,61,ee59fe00,0.0,0.0,0.0,0.0,0.0,0.0
2026-05-25 09:59:43.388288,1779717583.388288,2965928,-3804632,164207031,-38397,630811,88380,61,ee59fe00,0.0,0.0,0.0,0.0,0.0,0.0
2026-05-25 09:59:43.394352,1779717583.394352,2498670,-3847302,164561039,-66661,646805,51400,61,ee59fe00,0.0,0.0,0.0,0.0,0.0,0.0
2026-05-25 09:59:43.401857,1779717583.401857,2498670,-3847302,164561039,-66661,646805,51400,61,ee59fe00,0.0,0.0,0.0,0.0,0.0,0.0
2026-05-25 09:59:43.408381,1779717583.408381,1673282,-3989285,164762935,-62501,470590,-25940,61,ee59fe00,0.0,0.0,0.0,0.0,0.0,0.0
2026-05-25 09:59:43.416061,1779717583.416061,1673282,-3989285,164762935,-62501,470590,-25940,61,ee59fe00,0.0,0.0,0.0,0.0,0.0,0.0
2026-05-25 09:59:43.423084,1779717583.423084,1775701,-3885597,164840493,-34763,254310,-48227,61,ee59fe00,0.0,0.0,0.0,0.0,0.0,0.0
2026-05-25 09:59:43.430546,1779717583.430546,1775701,-3885597,164840493,-34763,254310,-48227,61,ee59fe00,0.0,0.0,0.0,0.0,0.0,0.0
2026-05-25 09:59:43.436699,1779717583.436699,1668666,-3975702,164906753,39965,36690,-18873,61,ee59fe00,0.0,0.0,0.0,0.0,0.0,0.0
2026-05-25 09:59:43.444354,1779717583.444354,1668666,-3975702,164906753,39965,36690,-18873,61,ee59fe00,0.0,0.0,0.0,0.0,0.0,0.0
2026-05-25 09:59:43.450184,1779717583.450184,2173219,-3925398,164852626,178864,-228612,25196,61,ee59fe00,0.0,0.0,0.0,0.0,0.0,0.0
2026-05-25 09:59:43.458881,1779717583.458881,2173219,-3925398,164852626,178864,-228612,25196,61,ee59fe00,0.0,0.0,0.0,0.0,0.0,0.0
2026-05-25 09:59:43.464624,1779717583.464624,2226750,-4048447,164599143,257281,-349204,71806,61,ee59fe00,0.0,0.0,0.0,0.0,0.0,0.0
2026-05-25 09:59:43.472293,1779717583.472293,2226750,-4048447,164599143,257281,-349204,71806,61,ee59fe00,0.0,0.0,0.0,0.0,0.0,0.0
2026-05-25 09:59:43.478768,1779717583.478768,2497041,-3969291,164383737,261192,-479593,73754,61,ee59fe00,0.0,0.0,0.0,0.0,0.0,0.0
2026-05-25 09:59:43.486910,1779717583.486910,2497041,-3969291,164383737,261192,-479593,73754,61,ee59fe00,0.0,0.0,0.0,0.0,0.0,0.0
2026-05-25 09:59:43.493662,1779717583.493662,2761969,-4009050,164126806,190393,-417898,23350,61,ee59fe00,0.0,0.0,0.0,0.0,0.0,0.0
2026-05-25 09:59:43.504895,1779717583.504895,2761969,-4009050,164126806,190393,-417898,23350,61,ee59fe00,0.0,0.0,0.0,0.0,0.0,0.0
2026-05-25 09:59:43.511147,1779717583.511147,3213319,-3859543,164194120,133680,-378438,-50479,61,ee59fe00,0.0,0.0,0.0,0.0,0.0,0.0
2026-05-25 09:59:43.518721,1779717583.518721,3213319,-3859543,164194120,133680,-378438,-50479,61,ee59fe00,0.0,0.0,0.0,0.0,0.0,0.0
2026-05-25 09:59:43.524559,1779717583.524559,3657198,-3659792,164042909,127540,-292456,-114216,61,ee59fe00,0.0,0.0,0.0,0.0,0.0,0.0
2026-05-25 09:59:43.531658,1779717583.531658,3657198,-3659792,164042909,127540,-292456,-114216,61,ee59fe00,0.0,0.0,0.0,0.0,0.0,0.0
2026-05-25 09:59:43.561396,1779717583.561396,3818301,-3418609,163935576,103678,-92143,-97459,61,ee59fe00,0.0,0.0,0.0,0.0,0.0,0.0
2026-05-25 09:59:43.569446,1779717583.569446,3818301,-3418609,163935576,103678,-92143,-97459,61,ee59fe00,0.0,0.0,0.0,0.0,0.0,0.0
2026-05-25 09:59:43.575169,1779717583.575169,3610861,-3298968,163938885,73494,131228,-41522,61,ee59fe00,0.0,0.0,0.0,0.0,0.0,0.0
2026-05-25 09:59:43.582659,1779717583.582659,3610861,-3298968,163938885,73494,131228,-41522,61,ee59fe00,0.0,0.0,0.0,0.0,0.0,0.0
2026-05-25 09:59:43.588470,1779717583.588470,3124915,-3257861,164201476,22579,292872,28030,61,ee59fe00,0.0,0.0,0.0,0.0,0.0,0.0
2026-05-25 09:59:43.595626,1779717583.595626,3124915,-3257861,164201476,22579,292872,28030,61,ee59fe00,0.0,0.0,0.0,0.0,0.0,0.0
2026-05-25 09:59:43.601630,1779717583.601630,2710048,-3476154,164303660,-27346,361055,57138,61,ee59fe00,0.0,0.0,0.0,0.0,0.0,0.0
2026-05-25 09:59:43.635163,1779717583.635163,2710048,-3476154,164303660,-27346,361055,57138,61,ee59fe00,0.0,0.0,0.0,0.0,0.0,0.0
2026-05-25 09:59:43.652908,1779717583.652908,2436106,-3756737,164528473,-65989,342332,59689,61,ee59fe00,0.0,0.0,0.0,0.0,0.0,0.0
2026-05-25 09:59:43.660558,1779717583.660558,2436106,-3756737,164528473,-65989,342332,59689,61,ee59fe00,0.0,0.0,0.0,0.0,0.0,0.0
2026-05-25 09:59:43.667698,1779717583.667698,2593536,-4071780,164415351,-8959,232563,1710,61,ee59fe00,0.0,0.0,0.0,0.0,0.0,0.0
2026-05-25 09:59:43.676753,1779717583.676753,2593536,-4071780,164415351,-8959,232563,1710,61,ee59fe00,0.0,0.0,0.0,0.0,0.0,0.0
2026-05-25 09:59:43.683825,1779717583.683825,2918023,-4323676,164382630,-5926,283011,-22725,61,ee59fe00,0.0,0.0,0.0,0.0,0.0,0.0
2026-05-25 09:59:43.691713,1779717583.691713,2918023,-4323676,164382630,-5926,283011,-22725,61,ee59fe00,0.0,0.0,0.0,0.0,0.0,0.0
2026-05-25 09:59:43.710893,1779717583.710893,3062604,-4425695,164270226,53811,279947,-3010,61,ee59fe00,0.0,0.0,0.0,0.0,0.0,0.0
2026-05-25 09:59:43.726497,1779717583.726497,3062604,-4425695,164270226,53811,279947,-3010,61,ee59fe00,0.0,0.0,0.0,0.0,0.0,0.0
2026-05-25 09:59:43.734908,1779717583.734908,3056804,-4381160,164112045,49832,410152,47184,61,ee59fe00,0.0,0.0,0.0,0.0,0.0,0.0
2026-05-25 09:59:43.749520,1779717583.749520,3056804,-4381160,164112045,49832,410152,47184,61,ee59fe00,0.0,0.0,0.0,0.0,0.0,0.0
2026-05-25 09:59:43.774653,1779717583.774653,2641660,-4214798,164358224,13339,476120,62001,61,ee59fe00,0.0,0.0,0.0,0.0,0.0,0.0
2026-05-25 09:59:43.790009,1779717583.790009,2641660,-4214798,164358224,13339,476120,62001,61,ee59fe00,0.0,0.0,0.0,0.0,0.0,0.0
2026-05-25 09:59:43.802955,1779717583.802955,2274037,-3857720,164502827,54353,355205,27518,61,ee59fe00,0.0,0.0,0.0,0.0,0.0,0.0
2026-05-25 09:59:43.810966,1779717583.810966,2274037,-3857720,164502827,54353,355205,27518,61,ee59fe00,0.0,0.0,0.0,0.0,0.0,0.0
2026-05-25 09:59:43.817807,1779717583.817807,1958817,-3428753,164641281,-10783,262681,-58909,61,ee59fe00,0.0,0.0,0.0,0.0,0.0,0.0
2026-05-25 09:59:43.826403,1779717583.826403,1958817,-3428753,164641281,-10783,262681,-58909,61,ee59fe00,0.0,0.0,0.0,0.0,0.0,0.0
2026-05-25 09:59:43.833467,1779717583.833467,1994592,-3139859,164857544,14257,104947,-112428,61,ee59fe00,0.0,0.0,0.0,0.0,0.0,0.0
2026-05-25 09:59:43.841533,1779717583.841533,1994592,-3139859,164857544,14257,104947,-112428,61,ee59fe00,0.0,0.0,0.0,0.0,0.0,0.0
2026-05-25 09:59:43.848844,1779717583.848844,2058305,-2979107,164685695,43673,-140543,-83603,61,ee59fe00,0.0,0.0,0.0,0.0,0.0,0.0
2026-05-25 09:59:43.858076,1779717583.858076,2058305,-2979107,164685695,43673,-140543,-83603,61,ee59fe00,0.0,0.0,0.0,0.0,0.0,0.0
2026-05-25 09:59:43.866702,1779717583.866702,2516142,-3098301,164568875,70075,-169166,-47353,61,ee59fe00,0.0,0.0,0.0,0.0,0.0,0.0
2026-05-25 09:59:43.875816,1779717583.875816,2516142,-3098301,164568875,70075,-169166,-47353,61,ee59fe00,0.0,0.0,0.0,0.0,0.0,0.0
2026-05-25 09:59:43.883557,1779717583.883557,2273470,-3547769,164512181,112831,-329011,25630,61,ee59fe00,0.0,0.0,0.0,0.0,0.0,0.0
2026-05-25 09:59:43.892030,1779717583.892030,2273470,-3547769,164512181,112831,-329011,25630,61,ee59fe00,0.0,0.0,0.0,0.0,0.0,0.0
2026-05-25 09:59:43.908010,1779717583.908010,2701298,-3986093,164426221,112935,-330589,21204,61,ee59fe00,0.0,0.0,0.0,0.0,0.0,0.0
2026-05-25 09:59:43.916773,1779717583.916773,2701298,-3986093,164426221,112935,-330589,21204,61,ee59fe00,0.0,0.0,0.0,0.0,0.0,0.0
2026-05-25 09:59:43.924591,1779717583.924591,2346330,-4518619,164494688,112372,-348677,39334,61,ee59fe00,0.0,0.0,0.0,0.0,0.0,0.0
2026-05-25 09:59:43.935339,1779717583.935339,2346330,-4518619,164494688,112372,-348677,39334,61,ee59fe00,0.0,0.0,0.0,0.0,0.0,0.0
2026-05-25 09:59:43.943447,1779717583.943447,2926305,-4592659,164313698,160274,-458856,-32913,61,ee59fe00,0.0,0.0,0.0,0.0,0.0,0.0
2026-05-25 09:59:43.952637,1779717583.952637,2926305,-4592659,164313698,160274,-458856,-32913,61,ee59fe00,0.0,0.0,0.0,0.0,0.0,0.0
2026-05-25 09:59:43.960523,1779717583.960523,3000804,-4611960,164108393,103654,-337744,-72853,61,ee59fe00,0.0,0.0,0.0,0.0,0.0,0.0
2026-05-25 09:59:43.969235,1779717583.969235,3000804,-4611960,164108393,103654,-337744,-72853,61,ee59fe00,0.0,0.0,0.0,0.0,0.0,0.0
2026-05-25 09:59:43.976744,1779717583.976744,3576983,-4264333,164110309,149056,-297664,-120803,61,ee59fe00,0.0,0.0,0.0,0.0,0.0,0.0
2026-05-25 09:59:43.989810,1779717583.989810,3576983,-4264333,164110309,149056,-297664,-120803,61,ee59fe00,0.0,0.0,0.0,0.0,0.0,0.0
2026-05-25 09:59:44.000145,1779717584.000145,3579864,-3909264,163913596,132022,-78529,-71074,61,ee59fe00,0.0,0.0,0.0,0.0,0.0,0.0
2026-05-25 09:59:44.013706,1779717584.013706,3579864,-3909264,163913596,132022,-78529,-71074,61,ee59fe00,0.0,0.0,0.0,0.0,0.0,0.0
2026-05-25 09:59:44.022645,1779717584.022645,3558866,-3415072,164029855,170524,77822,-21301,61,ee59fe00,0.0,0.0,0.0,0.0,0.0,0.0
2026-05-25 09:59:44.031155,1779717584.031155,3558866,-3415072,164029855,170524,77822,-21301,61,ee59fe00,0.0,0.0,0.0,0.0,0.0,0.0
2026-05-25 09:59:44.040249,1779717584.040249,2971333,-3163662,164140337,116301,160950,53134,61,ee59fe00,0.0,0.0,0.0,0.0,0.0,0.0
2026-05-25 09:59:44.050390,1779717584.050390,2971333,-3163662,164140337,116301,160950,53134,61,ee59fe00,0.0,0.0,0.0,0.0,0.0,0.0
2026-05-25 09:59:44.061192,1779717584.061192,2727120,-3026327,164295404,38394,188094,31263,61,ee59fe00,0.0,0.0,0.0,0.0,0.0,0.0
2026-05-25 09:59:44.069697,1779717584.069697,2727120,-3026327,164295404,38394,188094,31263,61,ee59fe00,0.0,0.0,0.0,0.0,0.0,0.0
2026-05-25 09:59:44.080763,1779717584.080763,2430977,-3116941,164539976,-70851,203071,10467,61,ee59fe00,0.0,0.0,0.0,0.0,0.0,0.0
2026-05-25 09:59:44.098341,1779717584.098341,2430977,-3116941,164539976,-70851,203071,10467,61,ee59fe00,0.0,0.0,0.0,0.0,0.0,0.0
2026-05-25 09:59:44.112746,1779717584.112746,2692582,-3239925,164461240,-100866,103125,-65801,61,ee59fe00,0.0,0.0,0.0,0.0,0.0,0.0
2026-05-25 09:59:44.124297,1779717584.124297,2692582,-3239925,164461240,-100866,103125,-65801,61,ee59fe00,0.0,0.0,0.0,0.0,0.0,0.0
2026-05-25 09:59:44.137748,1779717584.137748,2971181,-3409986,164333235,-132288,150686,-56700,61,ee59fe00,0.0,0.0,0.0,0.0,0.0,0.0
2026-05-25 09:59:44.154821,1779717584.154821,2971181,-3409986,164333235,-132288,150686,-56700,61,ee59fe00,0.0,0.0,0.0,0.0,0.0,0.0
2026-05-25 09:59:44.162801,1779717584.162801,3205022,-3608754,164189128,-106072,169726,-51246,61,ee59fe00,0.0,0.0,0.0,0.0,0.0,0.0
2026-05-25 09:59:44.174871,1779717584.174871,3205022,-3608754,164189128,-106072,169726,-51246,61,ee59fe00,0.0,0.0,0.0,0.0,0.0,0.0
2026-05-25 09:59:44.182580,1779717584.182580,3159682,-3775520,164204326,-109693,323205,20701,61,ee59fe00,0.0,0.0,0.0,0.0,0.0,0.0
2026-05-25 09:59:44.191244,1779717584.191244,3159682,-3775520,164204326,-109693,323205,20701,61,ee59fe00,0.0,0.0,0.0,0.0,0.0,0.0
2026-05-25 09:59:44.205601,1779717584.205601,2800804,-4036886,164337445,-91558,328209,42189,61,ee59fe00,0.0,0.0,0.0,0.0,0.0,0.0
2026-05-25 09:59:44.223712,1779717584.223712,2800804,-4036886,164337445,-91558,328209,42189,61,ee59fe00,0.0,0.0,0.0,0.0,0.0,0.0
2026-05-25 09:59:44.238188,1779717584.238188,2408963,-4256058,164516650,-109338,294686,68661,61,ee59fe00,0.0,0.0,0.0,0.0,0.0,0.0
2026-05-25 09:59:44.254996,1779717584.254996,2408963,-4256058,164516650,-109338,294686,68661,61,ee59fe00,0.0,0.0,0.0,0.0,0.0,0.0
2026-05-25 09:59:44.268938,1779717584.268938,2167474,-4397462,164621835,-63517,158230,25640,61,ee59fe00,0.0,0.0,0.0,0.0,0.0,0.0
2026-05-25 09:59:44.279739,1779717584.279739,2167474,-4397462,164621835,-63517,158230,25640,61,ee59fe00,0.0,0.0,0.0,0.0,0.0,0.0
2026-05-25 09:59:44.294013,1779717584.294013,2273917,-4453245,164636702,-22737,44845,9681,61,ee59fe00,0.0,0.0,0.0,0.0,0.0,0.0
2026-05-25 09:59:44.310455,1779717584.310455,2273917,-4453245,164636702,-22737,44845,9681,61,ee59fe00,0.0,0.0,0.0,0.0,0.0,0.0
2026-05-25 09:59:44.324871,1779717584.324871,2488358,-4283213,164629396,111630,-101081,-49898,61,ee59fe00,0.0,0.0,0.0,0.0,0.0,0.0
2026-05-25 09:59:44.342066,1779717584.342066,2488358,-4283213,164629396,111630,-101081,-49898,61,ee59fe00,0.0,0.0,0.0,0.0,0.0,0.0
2026-05-25 09:59:44.351192,1779717584.351192,2709897,-3963125,164382888,192831,-190992,-32102,61,ee59fe00,0.0,0.0,0.0,0.0,0.0,0.0
2026-05-25 09:59:44.360574,1779717584.360574,2709897,-3963125,164382888,192831,-190992,-32102,61,ee59fe00,0.0,0.0,0.0,0.0,0.0,0.0
2026-05-25 09:59:44.368954,1779717584.368954,2880183,-3604221,164349620,211114,-148731,-20911,61,ee59fe00,0.0,0.0,0.0,0.0,0.0,0.0
2026-05-25 09:59:44.378750,1779717584.378750,2880183,-3604221,164349620,211114,-148731,-20911,61,ee59fe00,0.0,0.0,0.0,0.0,0.0,0.0
2026-05-25 09:59:44.386055,1779717584.386055,2768158,-3373046,164263979,158151,-176327,17281,61,ee59fe00,0.0,0.0,0.0,0.0,0.0,0.0
2026-05-25 09:59:44.395036,1779717584.395036,2768158,-3373046,164263979,158151,-176327,17281,61,ee59fe00,0.0,0.0,0.0,0.0,0.0,0.0
2026-05-25 09:59:44.402330,1779717584.402330,3030947,-3245148,164305182,76544,-100415,4160,61,ee59fe00,0.0,0.0,0.0,0.0,0.0,0.0
2026-05-25 09:59:44.411414,1779717584.411414,3030947,-3245148,164305182,76544,-100415,4160,61,ee59fe00,0.0,0.0,0.0,0.0,0.0,0.0
2026-05-25 09:59:44.418483,1779717584.418483,2899069,-3283249,164315564,19489,-101652,-10046,61,ee59fe00,0.0,0.0,0.0,0.0,0.0,0.0
2026-05-25 09:59:44.430348,1779717584.430348,2899069,-3283249,164315564,19489,-101652,-10046,61,ee59fe00,0.0,0.0,0.0,0.0,0.0,0.0
2026-05-25 09:59:44.444344,1779717584.444344,3301397,-3295581,164211256,-21871,-30765,-50069,61,ee59fe00,0.0,0.0,0.0,0.0,0.0,0.0
2026-05-25 09:59:44.461711,1779717584.461711,3301397,-3295581,164211256,-21871,-30765,-50069,61,ee59fe00,0.0,0.0,0.0,0.0,0.0,0.0
2026-05-25 09:59:44.470007,1779717584.470007,3111319,-3597168,164144551,-59283,77195,-37009,61,ee59fe00,0.0,0.0,0.0,0.0,0.0,0.0
2026-05-25 09:59:44.479478,1779717584.479478,3111319,-3597168,164144551,-59283,77195,-37009,61,ee59fe00,0.0,0.0,0.0,0.0,0.0,0.0
2026-05-25 09:59:44.489833,1779717584.489833,3259311,-3782883,164206549,-49310,178044,-47567,61,ee59fe00,0.0,0.0,0.0,0.0,0.0,0.0
2026-05-25 09:59:44.500266,1779717584.500266,3259311,-3782883,164206549,-49310,178044,-47567,61,ee59fe00,0.0,0.0,0.0,0.0,0.0,0.0
2026-05-25 09:59:44.508029,1779717584.508029,2823908,-4212301,164270369,-29454,237056,20170,61,ee59fe00,0.0,0.0,0.0,0.0,0.0,0.0
2026-05-25 09:59:44.518691,1779717584.518691,2823908,-4212301,164270369,-29454,237056,20170,61,ee59fe00,0.0,0.0,0.0,0.0,0.0,0.0
2026-05-25 09:59:44.526170,1779717584.526170,2712275,-4347993,164457542,-3613,230596,12954,61,ee59fe00,0.0,0.0,0.0,0.0,0.0,0.0
2026-05-25 09:59:44.535664,1779717584.535664,2712275,-4347993,164457542,-3613,230596,12954,61,ee59fe00,0.0,0.0,0.0,0.0,0.0,0.0
2026-05-25 09:59:44.542848,1779717584.542848,2238617,-4577352,164541475,29276,134699,14968,61,ee59fe00,0.0,0.0,0.0,0.0,0.0,0.0
2026-05-25 09:59:44.552393,1779717584.552393,2238617,-4577352,164541475,29276,134699,14968,61,ee59fe00,0.0,0.0,0.0,0.0,0.0,0.0
2026-05-25 09:59:44.561624,1779717584.561624,2442142,-4321844,164489302,82789,20773,-58848,61,ee59fe00,0.0,0.0,0.0,0.0,0.0,0.0
2026-05-25 09:59:44.574858,1779717584.574858,2442142,-4321844,164489302,82789,20773,-58848,61,ee59fe00,0.0,0.0,0.0,0.0,0.0,0.0
2026-05-25 09:59:44.588238,1779717584.588238,2475314,-4120399,164409612,137623,-52031,-64824,61,ee59fe00,0.0,0.0,0.0,0.0,0.0,0.0
2026-05-25 09:59:44.604913,1779717584.604913,2475314,-4120399,164409612,137623,-52031,-64824,61,ee59fe00,0.0,0.0,0.0,0.0,0.0,0.0
2026-05-25 09:59:44.618123,1779717584.618123,2941388,-3648372,164296371,189388,-68143,-76108,61,ee59fe00,0.0,0.0,0.0,0.0,0.0,0.0
2026-05-25 09:59:44.634100,1779717584.634100,2941388,-3648372,164296371,189388,-68143,-76108,61,ee59fe00,0.0,0.0,0.0,0.0,0.0,0.0
2026-05-25 09:59:44.647553,1779717584.647553,2962978,-3384606,164204835,162017,38003,-23905,61,ee59fe00,0.0,0.0,0.0,0.0,0.0,0.0
2026-05-25 09:59:44.658081,1779717584.658081,2962978,-3384606,164204835,162017,38003,-23905,61,ee59fe00,0.0,0.0,0.0,0.0,0.0,0.0
2026-05-25 09:59:44.671186,1779717584.671186,2997974,-3082174,164275858,139332,101639,-4063,61,ee59fe00,0.0,0.0,0.0,0.0,0.0,0.0
2026-05-25 09:59:44.686940,1779717584.686940,2997974,-3082174,164275858,139332,101639,-4063,61,ee59fe00,0.0,0.0,0.0,0.0,0.0,0.0
2026-05-25 09:59:44.700376,1779717584.700376,2728497,-3109351,164266940,52904,157244,36046,61,ee59fe00,0.0,0.0,0.0,0.0,0.0,0.0
2026-05-25 09:59:44.717740,1779717584.717740,2728497,-3109351,164266940,52904,157244,36046,61,ee59fe00,0.0,0.0,0.0,0.0,0.0,0.0
2026-05-25 09:59:44.732289,1779717584.732289,2586710,-3190179,164403527,22315,146056,2608,61,ee59fe00,0.0,0.0,0.0,0.0,0.0,0.0
2026-05-25 09:59:44.748439,1779717584.748439,2586710,-3190179,164403527,22315,146056,2608,61,ee59fe00,0.0,0.0,0.0,0.0,0.0,0.0
2026-05-25 09:59:44.755953,1779717584.755953,2531910,-3520843,164401433,-41325,109963,4298,61,ee59fe00,0.0,0.0,0.0,0.0,0.0,0.0
2026-05-25 09:59:44.766197,1779717584.766197,2531910,-3520843,164401433,-41325,109963,4298,61,ee59fe00,0.0,0.0,0.0,0.0,0.0,0.0
2026-05-25 09:59:44.778067,1779717584.778067,2700455,-3717417,164395675,-36852,80131,-37741,61,ee59fe00,0.0,0.0,0.0,0.0,0.0,0.0
2026-05-25 09:59:44.792451,1779717584.792451,2700455,-3717417,164395675,-36852,80131,-37741,61,ee59fe00,0.0,0.0,0.0,0.0,0.0,0.0
2026-05-25 09:59:44.804632,1779717584.804632,2802012,-3978863,164322018,-42196,82918,-22656,61,ee59fe00,0.0,0.0,0.0,0.0,0.0,0.0
2026-05-25 09:59:44.819939,1779717584.819939,2802012,-3978863,164322018,-42196,82918,-22656,61,ee59fe00,0.0,0.0,0.0,0.0,0.0,0.0
2026-05-25 09:59:44.833149,1779717584.833149,2972552,-4130951,164274507,-1024,91818,-23413,61,ee59fe00,0.0,0.0,0.0,0.0,0.0,0.0
2026-05-25 09:59:44.850565,1779717584.850565,2972552,-4130951,164274507,-1024,91818,-23413,61,ee59fe00,0.0,0.0,0.0,0.0,0.0,0.0
2026-05-25 09:59:44.863808,1779717584.863808,2887794,-4272457,164289208,9292,152984,16559,61,ee59fe00,0.0,0.0,0.0,0.0,0.0,0.0
2026-05-25 09:59:44.881121,1779717584.881121,2887794,-4272457,164289208,9292,152984,16559,61,ee59fe00,0.0,0.0,0.0,0.0,0.0,0.0
2026-05-25 09:59:44.894759,1779717584.894759,2827317,-4296516,164380899,68457,117687,21737,61,ee59fe00,0.0,0.0,0.0,0.0,0.0,0.0
2026-05-25 09:59:44.911487,1779717584.911487,2827317,-4296516,164380899,68457,117687,21737,61,ee59fe00,0.0,0.0,0.0,0.0,0.0,0.0
2026-05-25 09:59:44.924661,1779717584.924661,2689044,-4264345,164390946,75901,109770,24889,61,ee59fe00,0.0,0.0,0.0,0.0,0.0,0.0
2026-05-25 09:59:44.942759,1779717584.942759,2689044,-4264345,164390946,75901,109770,24889,61,ee59fe00,0.0,0.0,0.0,0.0,0.0,0.0
2026-05-25 09:59:44.956878,1779717584.956878,2657195,-4098077,164448782,122741,27864,-11789,61,ee59fe00,0.0,0.0,0.0,0.0,0.0,0.0
2026-05-25 09:59:44.969009,1779717584.969009,2657195,-4098077,164448782,122741,27864,-11789,61,ee59fe00,0.0,0.0,0.0,0.0,0.0,0.0
2026-05-25 09:59:44.978607,1779717584.978607,2675821,-3847900,164376523,126582,-19398,-45545,61,ee59fe00,0.0,0.0,0.0,0.0,0.0,0.0
2026-05-25 09:59:44.990073,1779717584.990073,2675821,-3847900,164376523,126582,-19398,-45545,61,ee59fe00,0.0,0.0,0.0,0.0,0.0,0.0
2026-05-25 09:59:45.000682,1779717585.000682,2759967,-3591276,164351523,123023,-34462,-46165,61,ee59fe00,0.0,0.0,0.0,0.0,0.0,0.0
2026-05-25 09:59:45.013400,1779717585.013400,2759967,-3591276,164351523,123023,-34462,-46165,61,ee59fe00,0.0,0.0,0.0,0.0,0.0,0.0
2026-05-25 09:59:45.022841,1779717585.022841,2789854,-3391390,164311419,97795,-18998,-18429,61,ee59fe00,0.0,0.0,0.0,0.0,0.0,0.0
2026-05-25 09:59:45.034617,1779717585.034617,2789854,-3391390,164311419,97795,-18998,-18429,61,ee59fe00,0.0,0.0,0.0,0.0,0.0,0.0
2026-05-25 09:59:45.044166,1779717585.044166,2781661,-3297947,164351964,75050,13003,4002,61,ee59fe00,0.0,0.0,0.0,0.0,0.0,0.0
2026-05-25 09:59:45.053632,1779717585.053632,2781661,-3297947,164351964,75050,13003,4002,61,ee59fe00,0.0,0.0,0.0,0.0,0.0,0.0
2026-05-25 09:59:45.061488,1779717585.061488,2758345,-3351697,164412346,29895,30955,5386,61,ee59fe00,0.0,0.0,0.0,0.0,0.0,0.0
2026-05-25 09:59:45.070088,1779717585.070088,2758345,-3351697,164412346,29895,30955,5386,61,ee59fe00,0.0,0.0,0.0,0.0,0.0,0.0
2026-05-25 09:59:45.077611,1779717585.077611,2731640,-3507160,164437490,22091,758,-20462,61,ee59fe00,0.0,0.0,0.0,0.0,0.0,0.0
2026-05-25 09:59:45.086256,1779717585.086256,2731640,-3507160,164437490,22091,758,-20462,61,ee59fe00,0.0,0.0,0.0,0.0,0.0,0.0
2026-05-25 09:59:45.093806,1779717585.093806,2721479,-3710702,164425636,10382,1722,-39498,61,ee59fe00,0.0,0.0,0.0,0.0,0.0,0.0
2026-05-25 09:59:45.102972,1779717585.102972,2721479,-3710702,164425636,10382,1722,-39498,61,ee59fe00,0.0,0.0,0.0,0.0,0.0,0.0
2026-05-25 09:59:45.110961,1779717585.110961,2777938,-3928891,164389866,7777,1932,-49974,61,ee59fe00,0.0,0.0,0.0,0.0,0.0,0.0
2026-05-25 09:59:45.119909,1779717585.119909,2777938,-3928891,164389866,7777,1932,-49974,61,ee59fe00,0.0,0.0,0.0,0.0,0.0,0.0
2026-05-25 09:59:45.127123,1779717585.127123,2906468,-4106271,164292932,10061,41578,-23084,61,ee59fe00,0.0,0.0,0.0,0.0,0.0,0.0
2026-05-25 09:59:45.135786,1779717585.135786,2906468,-4106271,164292932,10061,41578,-23084,61,ee59fe00,0.0,0.0,0.0,0.0,0.0,0.0
2026-05-25 09:59:45.143405,1779717585.143405,2947286,-4249389,164266149,28540,89539,17465,61,ee59fe00,0.0,0.0,0.0,0.0,0.0,0.0
2026-05-25 09:59:45.152811,1779717585.152811,2947286,-4249389,164266149,28540,89539,17465,61,ee59fe00,0.0,0.0,0.0,0.0,0.0,0.0
2026-05-25 09:59:45.162015,1779717585.162015,2939985,-4267552,164257386,35472,92631,36523,61,ee59fe00,0.0,0.0,0.0,0.0,0.0,0.0
2026-05-25 09:59:45.172302,1779717585.172302,2939985,-4267552,164257386,35472,92631,36523,61,ee59fe00,0.0,0.0,0.0,0.0,0.0,0.0
2026-05-25 09:59:45.180136,1779717585.180136,2756156,-4197823,164342882,65070,73837,31292,61,ee59fe00,0.0,0.0,0.0,0.0,0.0,0.0
2026-05-25 09:59:45.190438,1779717585.190438,2756156,-4197823,164342882,65070,73837,31292,61,ee59fe00,0.0,0.0,0.0,0.0,0.0,0.0
2026-05-25 09:59:45.197937,1779717585.197937,2652302,-4018518,164376573,73152,65677,2813,61,ee59fe00,0.0,0.0,0.0,0.0,0.0,0.0
2026-05-25 09:59:45.216928,1779717585.216928,2652302,-4018518,164376573,73152,65677,2813,61,ee59fe00,0.0,0.0,0.0,0.0,0.0,0.0
2026-05-25 09:59:45.225648,1779717585.225648,2624067,-3840746,164373799,77189,52840,-38794,61,ee59fe00,0.0,0.0,0.0,0.0,0.0,0.0
2026-05-25 09:59:45.236445,1779717585.236445,2624067,-3840746,164373799,77189,52840,-38794,61,ee59fe00,0.0,0.0,0.0,0.0,0.0,0.0
2026-05-25 09:59:45.245989,1779717585.245989,2714760,-3640368,164359679,63591,35570,-58879,61,ee59fe00,0.0,0.0,0.0,0.0,0.0,0.0
2026-05-25 09:59:45.254721,1779717585.254721,2714760,-3640368,164359679,63591,35570,-58879,61,ee59fe00,0.0,0.0,0.0,0.0,0.0,0.0
2026-05-25 09:59:45.266220,1779717585.266220,2714760,-3640368,164359679,63591,35570,-58879,61,ee59fe00,0.0,0.0,0.0,0.0,0.0,0.0
2026-05-25 09:59:45.276401,1779717585.276401,2870962,-3450374,164345449,40962,26102,-70084,61,ee59fe00,0.0,0.0,0.0,0.0,0.0,0.0
2026-05-25 09:59:45.290335,1779717585.290335,2972844,-3359419,164328561,21190,33883,-65236,61,ee59fe00,0.0,0.0,0.0,0.0,0.0,0.0
2026-05-25 09:59:45.303403,1779717585.303403,2972844,-3359419,164328561,21190,33883,-65236,61,ee59fe00,0.0,0.0,0.0,0.0,0.0,0.0
2026-05-25 09:59:45.317172,1779717585.317172,2975800,-3373103,164361831,35956,69154,-45066,61,ee59fe00,0.0,0.0,0.0,0.0,0.0,0.0
2026-05-25 09:59:45.334554,1779717585.334554,2975800,-3373103,164361831,35956,69154,-45066,61,ee59fe00,0.0,0.0,0.0,0.0,0.0,0.0
2026-05-25 09:59:45.348020,1779717585.348020,2907986,-3518142,164350640,28309,93361,-15765,61,ee59fe00,0.0,0.0,0.0,0.0,0.0,0.0
2026-05-25 09:59:45.364848,1779717585.364848,2907986,-3518142,164350640,28309,93361,-15765,61,ee59fe00,0.0,0.0,0.0,0.0,0.0,0.0
2026-05-25 09:59:45.376234,1779717585.376234,2754375,-3731033,164396872,6921,106240,4948,61,ee59fe00,0.0,0.0,0.0,0.0,0.0,0.0
2026-05-25 09:59:45.385026,1779717585.385026,2754375,-3731033,164396872,6921,106240,4948,61,ee59fe00,0.0,0.0,0.0,0.0,0.0,0.0
2026-05-25 09:59:45.393089,1779717585.393089,2644954,-3920964,164395329,-17823,82013,3121,61,ee59fe00,0.0,0.0,0.0,0.0,0.0,0.0
2026-05-25 09:59:45.409636,1779717585.409636,2644954,-3920964,164395329,-17823,82013,3121,61,ee59fe00,0.0,0.0,0.0,0.0,0.0,0.0
2026-05-25 09:59:45.423796,1779717585.423796,2651431,-4037807,164380047,-41547,60414,-36933,61,ee59fe00,0.0,0.0,0.0,0.0,0.0,0.0
2026-05-25 09:59:45.440438,1779717585.440438,2651431,-4037807,164380047,-41547,60414,-36933,61,ee59fe00,0.0,0.0,0.0,0.0,0.0,0.0
2026-05-25 09:59:45.448912,1779717585.448912,2645791,-4070805,164424597,8611,28976,-54952,61,ee59fe00,0.0,0.0,0.0,0.0,0.0,0.0
2026-05-25 09:59:45.459585,1779717585.459585,2645791,-4070805,164424597,8611,28976,-54952,61,ee59fe00,0.0,0.0,0.0,0.0,0.0,0.0
2026-05-25 09:59:45.474094,1779717585.474094,2692046,-4041437,164413140,66626,5209,-54144,61,ee59fe00,0.0,0.0,0.0,0.0,0.0,0.0
2026-05-25 09:59:45.492073,1779717585.492073,2692046,-4041437,164413140,66626,5209,-54144,61,ee59fe00,0.0,0.0,0.0,0.0,0.0,0.0
2026-05-25 09:59:45.505619,1779717585.505619,2679331,-3983693,164421831,122061,-17355,-38871,61,ee59fe00,0.0,0.0,0.0,0.0,0.0,0.0
2026-05-25 09:59:45.523182,1779717585.523182,2679331,-3983693,164421831,122061,-17355,-38871,61,ee59fe00,0.0,0.0,0.0,0.0,0.0,0.0
2026-05-25 09:59:45.539441,1779717585.539441,2713564,-3847165,164398618,141119,-41019,-38025,61,ee59fe00,0.0,0.0,0.0,0.0,0.0,0.0
2026-05-25 09:59:45.557011,1779717585.557011,2713564,-3847165,164398618,141119,-41019,-38025,61,ee59fe00,0.0,0.0,0.0,0.0,0.0,0.0
2026-05-25 09:59:45.564856,1779717585.564856,2736622,-3720188,164409008,112781,-85891,-29798,61,ee59fe00,0.0,0.0,0.0,0.0,0.0,0.0
2026-05-25 09:59:45.581711,1779717585.581711,2736622,-3720188,164409008,112781,-85891,-29798,61,ee59fe00,0.0,0.0,0.0,0.0,0.0,0.0
2026-05-25 09:59:45.592777,1779717585.592777,2885906,-3569749,164376205,102099,-82902,-39446,61,ee59fe00,0.0,0.0,0.0,0.0,0.0,0.0
2026-05-25 09:59:45.601008,1779717585.601008,2885906,-3569749,164376205,102099,-82902,-39446,61,ee59fe00,0.0,0.0,0.0,0.0,0.0,0.0
2026-05-25 09:59:45.607991,1779717585.607991,2969284,-3495619,164330827,97669,-40153,-32711,61,ee59fe00,0.0,0.0,0.0,0.0,0.0,0.0
2026-05-25 09:59:45.616798,1779717585.616798,2969284,-3495619,164330827,97669,-40153,-32711,61,ee59fe00,0.0,0.0,0.0,0.0,0.0,0.0
2026-05-25 09:59:45.624227,1779717585.624227,3060606,-3429635,164308435,90141,27351,-30899,61,ee59fe00,0.0,0.0,0.0,0.0,0.0,0.0
2026-05-25 09:59:45.634470,1779717585.634470,3060606,-3429635,164308435,90141,27351,-30899,61,ee59fe00,0.0,0.0,0.0,0.0,0.0,0.0
2026-05-25 09:59:45.643653,1779717585.643653,3019983,-3527264,164316478,78286,89214,-18892,61,ee59fe00,0.0,0.0,0.0,0.0,0.0,0.0
2026-05-25 09:59:45.653906,1779717585.653906,3019983,-3527264,164316478,78286,89214,-18892,61,ee59fe00,0.0,0.0,0.0,0.0,0.0,0.0
2026-05-25 09:59:45.662590,1779717585.662590,2923450,-3635656,164348586,75410,154040,-20497,61,ee59fe00,0.0,0.0,0.0,0.0,0.0,0.0
2026-05-25 09:59:45.671794,1779717585.671794,2923450,-3635656,164348586,75410,154040,-20497,61,ee59fe00,0.0,0.0,0.0,0.0,0.0,0.0
2026-05-25 09:59:45.679084,1779717585.679084,2795110,-3763090,164363039,65157,186174,4687,61,ee59fe00,0.0,0.0,0.0,0.0,0.0,0.0
2026-05-25 09:59:45.692404,1779717585.692404,2795110,-3763090,164363039,65157,186174,4687,61,ee59fe00,0.0,0.0,0.0,0.0,0.0,0.0
2026-05-25 09:59:45.703610,1779717585.703610,2689564,-3915715,164439692,28475,176745,3738,61,ee59fe00,0.0,0.0,0.0,0.0,0.0,0.0
2026-05-25 09:59:45.713105,1779717585.713105,2689564,-3915715,164439692,28475,176745,3738,61,ee59fe00,0.0,0.0,0.0,0.0,0.0,0.0
2026-05-25 09:59:45.723556,1779717585.723556,2634092,-3969707,164427855,23504,116546,-5,61,ee59fe00,0.0,0.0,0.0,0.0,0.0,0.0
2026-05-25 09:59:45.742396,1779717585.742396,2634092,-3969707,164427855,23504,116546,-5,61,ee59fe00,0.0,0.0,0.0,0.0,0.0,0.0
2026-05-25 09:59:45.760610,1779717585.760610,2634520,-4028012,164403697,44447,71503,-7120,61,ee59fe00,0.0,0.0,0.0,0.0,0.0,0.0
2026-05-25 09:59:45.778242,1779717585.778242,2634520,-4028012,164403697,44447,71503,-7120,61,ee59fe00,0.0,0.0,0.0,0.0,0.0,0.0
2026-05-25 09:59:45.788633,1779717585.788633,2661142,-4021955,164352224,67215,32163,-20216,61,ee59fe00,0.0,0.0,0.0,0.0,0.0,0.0
2026-05-25 09:59:45.797977,1779717585.797977,2661142,-4021955,164352224,67215,32163,-20216,61,ee59fe00,0.0,0.0,0.0,0.0,0.0,0.0
2026-05-25 09:59:45.805036,1779717585.805036,2715844,-3991200,164352499,71341,15035,-34924,61,ee59fe00,0.0,0.0,0.0,0.0,0.0,0.0
2026-05-25 09:59:45.813731,1779717585.813731,2715844,-3991200,164352499,71341,15035,-34924,61,ee59fe00,0.0,0.0,0.0,0.0,0.0,0.0
2026-05-25 09:59:45.820998,1779717585.820998,2672514,-3913994,164366145,44961,32733,-34636,61,ee59fe00,0.0,0.0,0.0,0.0,0.0,0.0
2026-05-25 09:59:45.829671,1779717585.829671,2672514,-3913994,164366145,44961,32733,-34636,61,ee59fe00,0.0,0.0,0.0,0.0,0.0,0.0
2026-05-25 09:59:45.844762,1779717585.844762,2697450,-3741047,164356573,31995,1963,-23166,61,ee59fe00,0.0,0.0,0.0,0.0,0.0,0.0
2026-05-25 09:59:45.862771,1779717585.862771,2697450,-3741047,164356573,31995,1963,-23166,61,ee59fe00,0.0,0.0,0.0,0.0,0.0,0.0
2026-05-25 09:59:45.871956,1779717585.871956,2726283,-3643548,164319789,20562,4262,-25175,61,ee59fe00,0.0,0.0,0.0,0.0,0.0,0.0
2026-05-25 09:59:45.881462,1779717585.881462,2726283,-3643548,164319789,20562,4262,-25175,61,ee59fe00,0.0,0.0,0.0,0.0,0.0,0.0
2026-05-25 09:59:45.889931,1779717585.889931,2814523,-3542690,164293973,-4194,-21467,-35795,61,ee59fe00,0.0,0.0,0.0,0.0,0.0,0.0
2026-05-25 09:59:45.898808,1779717585.898808,2814523,-3542690,164293973,-4194,-21467,-35795,61,ee59fe00,0.0,0.0,0.0,0.0,0.0,0.0
2026-05-25 09:59:45.916926,1779717585.916926,2878430,-3520238,164282663,18439,-12909,-57616,61,ee59fe00,0.0,0.0,0.0,0.0,0.0,0.0
2026-05-25 09:59:45.940651,1779717585.940651,2878430,-3520238,164282663,18439,-12909,-57616,61,ee59fe00,0.0,0.0,0.0,0.0,0.0,0.0
2026-05-25 09:59:45.961015,1779717585.961015,2911676,-3617214,164292324,2039,128,-41026,61,ee59fe00,0.0,0.0,0.0,0.0,0.0,0.0
2026-05-25 09:59:45.970930,1779717585.970930,2911676,-3617214,164292324,2039,128,-41026,61,ee59fe00,0.0,0.0,0.0,0.0,0.0,0.0
2026-05-25 09:59:45.979081,1779717585.979081,2868401,-3742664,164308593,6201,65491,-16620,61,ee59fe00,0.0,0.0,0.0,0.0,0.0,0.0
2026-05-25 09:59:45.989826,1779717585.989826,2868401,-3742664,164308593,6201,65491,-16620,61,ee59fe00,0.0,0.0,0.0,0.0,0.0,0.0
2026-05-25 09:59:46.001689,1779717586.001689,2811357,-3892971,164359200,-5488,79487,-11090,61,ee59fe00,0.0,0.0,0.0,0.0,0.0,0.0
2026-05-25 09:59:46.011416,1779717586.011416,2811357,-3892971,164359200,-5488,79487,-11090,61,ee59fe00,0.0,0.0,0.0,0.0,0.0,0.0
2026-05-25 09:59:46.019064,1779717586.019064,2800144,-3978676,164340062,4925,70047,-24681,61,ee59fe00,0.0,0.0,0.0,0.0,0.0,0.0
2026-05-25 09:59:46.027929,1779717586.027929,2800144,-3978676,164340062,4925,70047,-24681,61,ee59fe00,0.0,0.0,0.0,0.0,0.0,0.0
2026-05-25 09:59:46.035717,1779717586.035717,2852157,-4028045,164321664,19782,46315,-44553,61,ee59fe00,0.0,0.0,0.0,0.0,0.0,0.0
2026-05-25 09:59:46.045416,1779717586.045416,2852157,-4028045,164321664,19782,46315,-44553,61,ee59fe00,0.0,0.0,0.0,0.0,0.0,0.0
2026-05-25 09:59:46.052720,1779717586.052720,2934677,-4023767,164258876,35148,50481,-41244,61,ee59fe00,0.0,0.0,0.0,0.0,0.0,0.0
2026-05-25 09:59:46.063159,1779717586.063159,2934677,-4023767,164258876,35148,50481,-41244,61,ee59fe00,0.0,0.0,0.0,0.0,0.0,0.0
2026-05-25 09:59:46.071471,1779717586.071471,2920025,-3938252,164226802,58532,86694,-41057,61,ee59fe00,0.0,0.0,0.0,0.0,0.0,0.0
2026-05-25 09:59:46.080979,1779717586.080979,2920025,-3938252,164226802,58532,86694,-41057,61,ee59fe00,0.0,0.0,0.0,0.0,0.0,0.0
2026-05-25 09:59:46.088489,1779717586.088489,2854910,-3836240,164269664,45928,106106,-15480,61,ee59fe00,0.0,0.0,0.0,0.0,0.0,0.0
2026-05-25 09:59:46.099172,1779717586.099172,2854910,-3836240,164269664,45928,106106,-15480,61,ee59fe00,0.0,0.0,0.0,0.0,0.0,0.0
2026-05-25 09:59:46.107698,1779717586.107698,2718330,-3723932,164363260,47660,134576,-3677,61,ee59fe00,0.0,0.0,0.0,0.0,0.0,0.0
2026-05-25 09:59:46.117863,1779717586.117863,2718330,-3723932,164363260,47660,134576,-3677,61,ee59fe00,0.0,0.0,0.0,0.0,0.0,0.0
2026-05-25 09:59:46.126229,1779717586.126229,2590838,-3635445,164445493,21919,107473,17842,61,ee59fe00,0.0,0.0,0.0,0.0,0.0,0.0
2026-05-25 09:59:46.135880,1779717586.135880,2590838,-3635445,164445493,21919,107473,17842,61,ee59fe00,0.0,0.0,0.0,0.0,0.0,0.0
2026-05-25 09:59:46.142975,1779717586.142975,2516530,-3611649,164507790,23732,71917,5515,61,ee59fe00,0.0,0.0,0.0,0.0,0.0,0.0
2026-05-25 09:59:46.152671,1779717586.152671,2516530,-3611649,164507790,23732,71917,5515,61,ee59fe00,0.0,0.0,0.0,0.0,0.0,0.0
2026-05-25 09:59:46.162924,1779717586.162924,2530279,-3570895,164526329,15253,12089,-13091,61,ee59fe00,0.0,0.0,0.0,0.0,0.0,0.0
2026-05-25 09:59:46.172138,1779717586.172138,2530279,-3570895,164526329,15253,12089,-13091,61,ee59fe00,0.0,0.0,0.0,0.0,0.0,0.0
2026-05-25 09:59:46.180391,1779717586.180391,2618438,-3612389,164410327,11132,-38200,-17418,61,ee59fe00,0.0,0.0,0.0,0.0,0.0,0.0
2026-05-25 09:59:46.190220,1779717586.190220,2618438,-3612389,164410327,11132,-38200,-17418,61,ee59fe00,0.0,0.0,0.0,0.0,0.0,0.0
2026-05-25 09:59:46.198673,1779717586.198673,2758646,-3694720,164334052,-3369,-52140,-13799,61,ee59fe00,0.0,0.0,0.0,0.0,0.0,0.0
2026-05-25 09:59:46.214501,1779717586.214501,2758646,-3694720,164334052,-3369,-52140,-13799,61,ee59fe00,0.0,0.0,0.0,0.0,0.0,0.0
2026-05-25 09:59:46.222285,1779717586.222285,2831275,-3828596,164273559,-15736,-44740,-4183,61,ee59fe00,0.0,0.0,0.0,0.0,0.0,0.0
2026-05-25 09:59:46.231496,1779717586.231496,2831275,-3828596,164273559,-15736,-44740,-4183,61,ee59fe00,0.0,0.0,0.0,0.0,0.0,0.0
2026-05-25 09:59:46.239111,1779717586.239111,2897385,-3913382,164307118,-23907,203,3921,61,ee59fe00,0.0,0.0,0.0,0.0,0.0,0.0
2026-05-25 09:59:46.248706,1779717586.248706,2897385,-3913382,164307118,-23907,203,3921,61,ee59fe00,0.0,0.0,0.0,0.0,0.0,0.0
2026-05-25 09:59:46.262988,1779717586.262988,2907135,-3995405,164294890,9110,19645,15188,61,ee59fe00,0.0,0.0,0.0,0.0,0.0,0.0
2026-05-25 09:59:46.279308,1779717586.279308,2907135,-3995405,164294890,9110,19645,15188,61,ee59fe00,0.0,0.0,0.0,0.0,0.0,0.0
2026-05-25 09:59:46.292003,1779717586.292003,2930098,-3968269,164302587,33353,55639,-1943,61,ee59fe00,0.0,0.0,0.0,0.0,0.0,0.0
2026-05-25 09:59:46.301458,1779717586.301458,2930098,-3968269,164302587,33353,55639,-1943,61,ee59fe00,0.0,0.0,0.0,0.0,0.0,0.0
2026-05-25 09:59:46.309407,1779717586.309407,2950850,-3978487,164317237,61838,65307,-12695,61,ee59fe00,0.0,0.0,0.0,0.0,0.0,0.0
2026-05-25 09:59:46.321589,1779717586.321589,2950850,-3978487,164317237,61838,65307,-12695,61,ee59fe00,0.0,0.0,0.0,0.0,0.0,0.0
2026-05-25 09:59:46.329300,1779717586.329300,2896881,-3893021,164350240,43816,82200,-16017,61,ee59fe00,0.0,0.0,0.0,0.0,0.0,0.0
2026-05-25 09:59:46.340435,1779717586.340435,2896881,-3893021,164350240,43816,82200,-16017,61,ee59fe00,0.0,0.0,0.0,0.0,0.0,0.0
2026-05-25 09:59:46.354797,1779717586.354797,2843343,-3826500,164359911,57153,80941,6707,61,ee59fe00,0.0,0.0,0.0,0.0,0.0,0.0
2026-05-25 09:59:46.372303,1779717586.372303,2843343,-3826500,164359911,57153,80941,6707,61,ee59fe00,0.0,0.0,0.0,0.0,0.0,0.0
2026-05-25 09:59:46.385982,1779717586.385982,2788721,-3713280,164355149,33995,85171,1322,61,ee59fe00,0.0,0.0,0.0,0.0,0.0,0.0
2026-05-25 09:59:46.401918,1779717586.401918,2788721,-3713280,164355149,33995,85171,1322,61,ee59fe00,0.0,0.0,0.0,0.0,0.0,0.0
2026-05-25 09:59:46.412886,1779717586.412886,2776561,-3650035,164426214,46305,91535,11785,61,ee59fe00,0.0,0.0,0.0,0.0,0.0,0.0
2026-05-25 09:59:46.422485,1779717586.422485,2776561,-3650035,164426214,46305,91535,11785,61,ee59fe00,0.0,0.0,0.0,0.0,0.0,0.0
2026-05-25 09:59:46.431441,1779717586.431441,2797769,-3620612,164436679,37755,79336,-10256,61,ee59fe00,0.0,0.0,0.0,0.0,0.0,0.0
2026-05-25 09:59:46.443720,1779717586.443720,2797769,-3620612,164436679,37755,79336,-10256,61,ee59fe00,0.0,0.0,0.0,0.0,0.0,0.0
2026-05-25 09:59:46.457476,1779717586.457476,2815255,-3683422,164425951,64489,78784,-10862,61,ee59fe00,0.0,0.0,0.0,0.0,0.0,0.0
2026-05-25 09:59:46.474356,1779717586.474356,2815255,-3683422,164425951,64489,78784,-10862,61,ee59fe00,0.0,0.0,0.0,0.0,0.0,0.0
2026-05-25 09:59:46.482572,1779717586.482572,2821139,-3716095,164364745,60269,51062,-14190,61,ee59fe00,0.0,0.0,0.0,0.0,0.0,0.0
2026-05-25 09:59:46.491579,1779717586.491579,2821139,-3716095,164364745,60269,51062,-14190,61,ee59fe00,0.0,0.0,0.0,0.0,0.0,0.0
2026-05-25 09:59:46.499425,1779717586.499425,2862901,-3805717,164323031,30710,98869,-4327,61,ee59fe00,0.0,0.0,0.0,0.0,0.0,0.0
2026-05-25 09:59:46.507903,1779717586.507903,2862901,-3805717,164323031,30710,98869,-4327,61,ee59fe00,0.0,0.0,0.0,0.0,0.0,0.0
2026-05-25 09:59:46.516402,1779717586.516402,2814370,-3898552,164355668,-4695,116561,-13203,61,ee59fe00,0.0,0.0,0.0,0.0,0.0,0.0
2026-05-25 09:59:46.532592,1779717586.532592,2814370,-3898552,164355668,-4695,116561,-13203,61,ee59fe00,0.0,0.0,0.0,0.0,0.0,0.0
2026-05-25 09:59:46.542967,1779717586.542967,2808446,-3956931,164355589,883,99801,-12620,61,ee59fe00,0.0,0.0,0.0,0.0,0.0,0.0
2026-05-25 09:59:46.560719,1779717586.560719,2808446,-3956931,164355589,883,99801,-12620,61,ee59fe00,0.0,0.0,0.0,0.0,0.0,0.0
2026-05-25 09:59:46.571019,1779717586.571019,2715375,-3991853,164386064,24189,76321,-9673,61,ee59fe00,0.0,0.0,0.0,0.0,0.0,0.0
2026-05-25 09:59:46.579496,1779717586.579496,2715375,-3991853,164386064,24189,76321,-9673,61,ee59fe00,0.0,0.0,0.0,0.0,0.0,0.0
2026-05-25 09:59:46.587051,1779717586.587051,2665757,-3957758,164403918,46439,39888,-18585,61,ee59fe00,0.0,0.0,0.0,0.0,0.0,0.0
2026-05-25 09:59:46.600739,1779717586.600739,2665757,-3957758,164403918,46439,39888,-18585,61,ee59fe00,0.0,0.0,0.0,0.0,0.0,0.0
2026-05-25 09:59:46.608462,1779717586.608462,2658229,-3957241,164345349,66035,17212,-42067,61,ee59fe00,0.0,0.0,0.0,0.0,0.0,0.0
2026-05-25 09:59:46.617125,1779717586.617125,2658229,-3957241,164345349,66035,17212,-42067,61,ee59fe00,0.0,0.0,0.0,0.0,0.0,0.0
2026-05-25 09:59:46.624097,1779717586.624097,2749885,-3834309,164324065,71823,17373,-36901,61,ee59fe00,0.0,0.0,0.0,0.0,0.0,0.0
2026-05-25 09:59:46.632931,1779717586.632931,2749885,-3834309,164324065,71823,17373,-36901,61,ee59fe00,0.0,0.0,0.0,0.0,0.0,0.0
2026-05-25 09:59:46.643260,1779717586.643260,2848294,-3717297,164269672,77126,13730,-24416,61,ee59fe00,0.0,0.0,0.0,0.0,0.0,0.0
2026-05-25 09:59:46.657492,1779717586.657492,2848294,-3717297,164269672,77126,13730,-24416,61,ee59fe00,0.0,0.0,0.0,0.0,0.0,0.0
2026-05-25 09:59:46.665323,1779717586.665323,2911283,-3593469,164262313,60175,42691,10986,61,ee58fe00,0.0,0.0,0.0,0.0,0.0,0.0
2026-05-25 09:59:46.674791,1779717586.674791,2911283,-3593469,164262313,60175,42691,10986,61,ee58fe00,0.0,0.0,0.0,0.0,0.0,0.0
2026-05-25 09:59:46.683226,1779717586.683226,2916864,-3522581,164274692,42606,64581,13843,61,ee58fe00,0.0,0.0,0.0,0.0,0.0,0.0
2026-05-25 09:59:46.693820,1779717586.693820,2916864,-3522581,164274692,42606,64581,13843,61,ee58fe00,0.0,0.0,0.0,0.0,0.0,0.0
2026-05-25 09:59:46.703636,1779717586.703636,2925604,-3546241,164279862,58121,95943,39506,61,ee59fe00,0.0,0.0,0.0,0.0,0.0,0.0
2026-05-25 09:59:46.714261,1779717586.714261,2925604,-3546241,164279862,58121,95943,39506,61,ee59fe00,0.0,0.0,0.0,0.0,0.0,0.0
2026-05-25 09:59:46.722619,1779717586.722619,2894317,-3600420,164314488,48011,144462,26935,61,ee59fe00,0.0,0.0,0.0,0.0,0.0,0.0
2026-05-25 09:59:46.731508,1779717586.731508,2894317,-3600420,164314488,48011,144462,26935,61,ee59fe00,0.0,0.0,0.0,0.0,0.0,0.0
2026-05-25 09:59:46.738705,1779717586.738705,2810333,-3675005,164346844,49705,169618,23966,61,ee59fe00,0.0,0.0,0.0,0.0,0.0,0.0
2026-05-25 09:59:46.756164,1779717586.756164,2810333,-3675005,164346844,49705,169618,23966,61,ee59fe00,0.0,0.0,0.0,0.0,0.0,0.0
2026-05-25 09:59:46.765266,1779717586.765266,2744327,-3740066,164345562,19108,165002,3072,61,ee59fe00,0.0,0.0,0.0,0.0,0.0,0.0
2026-05-25 09:59:46.780052,1779717586.780052,2744327,-3740066,164345562,19108,165002,3072,61,ee59fe00,0.0,0.0,0.0,0.0,0.0,0.0
2026-05-25 09:59:46.788439,1779717586.788439,2641054,-3813721,164363743,22050,140617,14685,61,ee59fe00,0.0,0.0,0.0,0.0,0.0,0.0
2026-05-25 09:59:46.798078,1779717586.798078,2641054,-3813721,164363743,22050,140617,14685,61,ee59fe00,0.0,0.0,0.0,0.0,0.0,0.0
2026-05-25 09:59:46.811820,1779717586.811820,2644178,-3907485,164354031,54559,103372,14827,61,ee59fe00,0.0,0.0,0.0,0.0,0.0,0.0
2026-05-25 09:59:46.824192,1779717586.824192,2644178,-3907485,164354031,54559,103372,14827,61,ee59fe00,0.0,0.0,0.0,0.0,0.0,0.0
2026-05-25 09:59:46.832826,1779717586.832826,2673819,-3919942,164343585,63436,96775,19588,61,ee59fe00,0.0,0.0,0.0,0.0,0.0,0.0
2026-05-25 09:59:46.844650,1779717586.844650,2673819,-3919942,164343585,63436,96775,19588,61,ee59fe00,0.0,0.0,0.0,0.0,0.0,0.0
2026-05-25 09:59:46.856981,1779717586.856981,2725465,-3917319,164301743,55225,87930,-2870,61,ee59fe00,0.0,0.0,0.0,0.0,0.0,0.0
2026-05-25 09:59:46.874237,1779717586.874237,2725465,-3917319,164301743,55225,87930,-2870,61,ee59fe00,0.0,0.0,0.0,0.0,0.0,0.0
2026-05-25 09:59:46.888654,1779717586.888654,2762868,-3836092,164306461,48847,96108,722,61,ee59fe00,0.0,0.0,0.0,0.0,0.0,0.0
2026-05-25 09:59:46.905896,1779717586.905896,2762868,-3836092,164306461,48847,96108,722,61,ee59fe00,0.0,0.0,0.0,0.0,0.0,0.0
2026-05-25 09:59:46.919638,1779717586.919638,2777676,-3779151,164349071,21593,119914,19689,61,ee59fe00,0.0,0.0,0.0,0.0,0.0,0.0
2026-05-25 09:59:46.936828,1779717586.936828,2777676,-3779151,164349071,21593,119914,19689,61,ee59fe00,0.0,0.0,0.0,0.0,0.0,0.0
2026-05-25 09:59:46.948685,1779717586.948685,2762323,-3709654,164424173,50597,97622,15861,61,ee59fe00,0.0,0.0,0.0,0.0,0.0,0.0
2026-05-25 09:59:46.965467,1779717586.965467,2762323,-3709654,164424173,50597,97622,15861,61,ee59fe00,0.0,0.0,0.0,0.0,0.0,0.0
2026-05-25 09:59:46.978728,1779717586.978728,2734333,-3685961,164441395,70235,89425,8706,61,ee59fe00,0.0,0.0,0.0,0.0,0.0,0.0
2026-05-25 09:59:46.989481,1779717586.989481,2734333,-3685961,164441395,70235,89425,8706,61,ee59fe00,0.0,0.0,0.0,0.0,0.0,0.0
2026-05-25 09:59:47.002246,1779717587.002246,2619590,-3692622,164450246,89018,30587,-20859,61,ee59fe00,0.0,0.0,0.0,0.0,0.0,0.0
2026-05-25 09:59:47.018047,1779717587.018047,2619590,-3692622,164450246,89018,30587,-20859,61,ee59fe00,0.0,0.0,0.0,0.0,0.0,0.0
2026-05-25 09:59:47.025704,1779717587.025704,2615295,-3712818,164437956,91649,-22482,-30688,61,ee59fe00,0.0,0.0,0.0,0.0,0.0,0.0
2026-05-25 09:59:47.036347,1779717587.036347,2615295,-3712818,164437956,91649,-22482,-30688,61,ee59fe00,0.0,0.0,0.0,0.0,0.0,0.0
2026-05-25 09:59:47.050775,1779717587.050775,2652456,-3750806,164413896,48421,-50631,-35653,61,ee59fe00,0.0,0.0,0.0,0.0,0.0,0.0
2026-05-25 09:59:47.060352,1779717587.060352,2652456,-3750806,164413896,48421,-50631,-35653,61,ee59fe00,0.0,0.0,0.0,0.0,0.0,0.0
2026-05-25 09:59:47.067370,1779717587.067370,2736632,-3798152,164410111,76515,-85357,-19280,61,ee59fe00,0.0,0.0,0.0,0.0,0.0,0.0
2026-05-25 09:59:47.076617,1779717587.076617,2736632,-3798152,164410111,76515,-85357,-19280,61,ee59fe00,0.0,0.0,0.0,0.0,0.0,0.0
2026-05-25 09:59:47.083976,1779717587.083976,2830105,-3824095,164344205,79832,-91197,-5213,61,ee59fe00,0.0,0.0,0.0,0.0,0.0,0.0
2026-05-25 09:59:47.094818,1779717587.094818,2830105,-3824095,164344205,79832,-91197,-5213,61,ee59fe00,0.0,0.0,0.0,0.0,0.0,0.0
2026-05-25 09:59:47.102120,1779717587.102120,2883001,-3841658,164244964,97509,-80382,3151,61,ee59fe00,0.0,0.0,0.0,0.0,0.0,0.0
2026-05-25 09:59:47.118383,1779717587.118383,2883001,-3841658,164244964,97509,-80382,3151,61,ee59fe00,0.0,0.0,0.0,0.0,0.0,0.0
2026-05-25 09:59:47.131014,1779717587.131014,2889055,-3866083,164264172,96552,-50737,-3010,61,ee59fe00,0.0,0.0,0.0,0.0,0.0,0.0
2026-05-25 09:59:47.147424,1779717587.147424,2889055,-3866083,164264172,96552,-50737,-3010,61,ee59fe00,0.0,0.0,0.0,0.0,0.0,0.0
2026-05-25 09:59:47.160729,1779717587.160729,2915517,-3857280,164225978,83283,-7525,-10464,61,ee59fe00,0.0,0.0,0.0,0.0,0.0,0.0
2026-05-25 09:59:47.178005,1779717587.178005,2915517,-3857280,164225978,83283,-7525,-10464,61,ee59fe00,0.0,0.0,0.0,0.0,0.0,0.0
2026-05-25 09:59:47.188826,1779717587.188826,2824836,-3846713,164304365,72013,43291,-8628,61,ee59fe00,0.0,0.0,0.0,0.0,0.0,0.0
2026-05-25 09:59:47.198188,1779717587.198188,2824836,-3846713,164304365,72013,43291,-8628,61,ee59fe00,0.0,0.0,0.0,0.0,0.0,0.0
2026-05-25 09:59:47.210451,1779717587.210451,2757126,-3744509,164309920,74937,58501,-9198,61,ee59fe00,0.0,0.0,0.0,0.0,0.0,0.0
2026-05-25 09:59:47.220110,1779717587.220110,2757126,-3744509,164309920,74937,58501,-9198,61,ee59fe00,0.0,0.0,0.0,0.0,0.0,0.0
2026-05-25 09:59:47.229388,1779717587.229388,2712525,-3627188,164320142,71880,78462,-16111,61,ee59fe00,0.0,0.0,0.0,0.0,0.0,0.0
2026-05-25 09:59:47.244900,1779717587.244900,2712525,-3627188,164320142,71880,78462,-16111,61,ee59fe00,0.0,0.0,0.0,0.0,0.0,0.0
2026-05-25 09:59:47.259834,1779717587.259834,2702365,-3572250,164333323,59974,71208,-14556,61,ee59fe00,0.0,0.0,0.0,0.0,0.0,0.0
2026-05-25 09:59:47.277963,1779717587.277963,2702365,-3572250,164333323,59974,71208,-14556,61,ee59fe00,0.0,0.0,0.0,0.0,0.0,0.0
2026-05-25 09:59:47.291669,1779717587.291669,2785680,-3578054,164344150,70110,64204,862,61,ee59fe00,0.0,0.0,0.0,0.0,0.0,0.0
2026-05-25 09:59:47.308704,1779717587.308704,2785680,-3578054,164344150,70110,64204,862,61,ee59fe00,0.0,0.0,0.0,0.0,0.0,0.0
2026-05-25 09:59:47.317010,1779717587.317010,2815304,-3638787,164308565,34288,66066,5146,61,ee59fe00,0.0,0.0,0.0,0.0,0.0,0.0
2026-05-25 09:59:47.325500,1779717587.325500,2815304,-3638787,164308565,34288,66066,5146,61,ee59fe00,0.0,0.0,0.0,0.0,0.0,0.0
2026-05-25 09:59:47.332262,1779717587.332262,2826262,-3725828,164292815,13698,89639,-3322,61,ee59fe00,0.0,0.0,0.0,0.0,0.0,0.0
2026-05-25 09:59:47.343309,1779717587.343309,2826262,-3725828,164292815,13698,89639,-3322,61,ee59fe00,0.0,0.0,0.0,0.0,0.0,0.0
2026-05-25 09:59:47.352574,1779717587.352574,2790935,-3824333,164276031,-18457,116498,-11650,61,ee59fe00,0.0,0.0,0.0,0.0,0.0,0.0
2026-05-25 09:59:47.363323,1779717587.363323,2790935,-3824333,164276031,-18457,116498,-11650,61,ee59fe00,0.0,0.0,0.0,0.0,0.0,0.0
2026-05-25 09:59:47.371780,1779717587.371780,2776086,-3940600,164336752,-23425,124000,-4319,61,ee59fe00,0.0,0.0,0.0,0.0,0.0,0.0
2026-05-25 09:59:47.381568,1779717587.381568,2776086,-3940600,164336752,-23425,124000,-4319,61,ee59fe00,0.0,0.0,0.0,0.0,0.0,0.0
2026-05-25 09:59:47.389984,1779717587.389984,2811010,-3971914,164344275,6241,90121,-16089,61,ee59fe00,0.0,0.0,0.0,0.0,0.0,0.0
2026-05-25 09:59:47.399286,1779717587.399286,2811010,-3971914,164344275,6241,90121,-16089,61,ee59fe00,0.0,0.0,0.0,0.0,0.0,0.0
2026-05-25 09:59:47.406963,1779717587.406963,2787227,-3958286,164355947,23863,59850,-19914,61,ee59fe00,0.0,0.0,0.0,0.0,0.0,0.0
2026-05-25 09:59:47.420687,1779717587.420687,2787227,-3958286,164355947,23863,59850,-19914,61,ee59fe00,0.0,0.0,0.0,0.0,0.0,0.0
2026-05-25 09:59:47.431447,1779717587.431447,2751888,-3922705,164361707,51742,42909,-25513,61,ee59fe00,0.0,0.0,0.0,0.0,0.0,0.0
2026-05-25 09:59:47.445964,1779717587.445964,2751888,-3922705,164361707,51742,42909,-25513,61,ee59fe00,0.0,0.0,0.0,0.0,0.0,0.0
2026-05-25 09:59:47.459602,1779717587.459602,2688262,-3851738,164396487,36072,30288,-12803,61,ee59fe00,0.0,0.0,0.0,0.0,0.0,0.0
2026-05-25 09:59:47.475573,1779717587.475573,2688262,-3851738,164396487,36072,30288,-12803,61,ee59fe00,0.0,0.0,0.0,0.0,0.0,0.0
2026-05-25 09:59:47.488808,1779717587.488808,2727102,-3787070,164406676,60757,39464,2705,61,ee59fe00,0.0,0.0,0.0,0.0,0.0,0.0
2026-05-25 09:59:47.504944,1779717587.504944,2727102,-3787070,164406676,60757,39464,2705,61,ee59fe00,0.0,0.0,0.0,0.0,0.0,0.0
2026-05-25 09:59:47.513914,1779717587.513914,2697310,-3725612,164392670,65479,14304,14694,61,ee59fe00,0.0,0.0,0.0,0.0,0.0,0.0
2026-05-25 09:59:47.522425,1779717587.522425,2697310,-3725612,164392670,65479,14304,14694,61,ee59fe00,0.0,0.0,0.0,0.0,0.0,0.0
2026-05-25 09:59:47.529636,1779717587.529636,2774682,-3673584,164373580,93357,-9283,6028,61,ee59fe00,0.0,0.0,0.0,0.0,0.0,0.0
2026-05-25 09:59:47.538332,1779717587.538332,2774682,-3673584,164373580,93357,-9283,6028,61,ee59fe00,0.0,0.0,0.0,0.0,0.0,0.0
2026-05-25 09:59:47.545815,1779717587.545815,2765329,-3653531,164324325,114822,-27978,-17244,61,ee59fe00,0.0,0.0,0.0,0.0,0.0,0.0
2026-05-25 09:59:47.554370,1779717587.554370,2765329,-3653531,164324325,114822,-27978,-17244,61,ee59fe00,0.0,0.0,0.0,0.0,0.0,0.0
2026-05-25 09:59:47.561684,1779717587.561684,2816284,-3578612,164329210,100903,-30071,-32360,61,ee59fe00,0.0,0.0,0.0,0.0,0.0,0.0
2026-05-25 09:59:47.570504,1779717587.570504,2816284,-3578612,164329210,100903,-30071,-32360,61,ee59fe00,0.0,0.0,0.0,0.0,0.0,0.0
2026-05-25 09:59:47.577553,1779717587.577553,2799111,-3614369,164319715,92888,1484,-24715,61,ee59fe00,0.0,0.0,0.0,0.0,0.0,0.0
2026-05-25 09:59:47.585871,1779717587.585871,2799111,-3614369,164319715,92888,1484,-24715,61,ee59fe00,0.0,0.0,0.0,0.0,0.0,0.0
2026-05-25 09:59:47.592571,1779717587.592571,2814776,-3649959,164345866,69073,29222,-27773,61,ee59fe00,0.0,0.0,0.0,0.0,0.0,0.0
2026-05-25 09:59:47.600368,1779717587.600368,2814776,-3649959,164345866,69073,29222,-27773,61,ee59fe00,0.0,0.0,0.0,0.0,0.0,0.0
2026-05-25 09:59:47.607461,1779717587.607461,2815809,-3782672,164354878,67984,44113,-23583,61,ee59fe00,0.0,0.0,0.0,0.0,0.0,0.0
2026-05-25 09:59:47.616033,1779717587.616033,2815809,-3782672,164354878,67984,44113,-23583,61,ee59fe00,0.0,0.0,0.0,0.0,0.0,0.0
2026-05-25 09:59:47.623034,1779717587.623034,2817205,-3838060,164355516,67766,48006,-34568,61,ee59fe00,0.0,0.0,0.0,0.0,0.0,0.0
2026-05-25 09:59:47.631152,1779717587.631152,2817205,-3838060,164355516,67766,48006,-34568,61,ee59fe00,0.0,0.0,0.0,0.0,0.0,0.0
2026-05-25 09:59:47.637770,1779717587.637770,2829421,-3915274,164335520,41869,51785,-33429,61,ee59fe00,0.0,0.0,0.0,0.0,0.0,0.0
2026-05-25 09:59:47.646519,1779717587.646519,2829421,-3915274,164335520,41869,51785,-33429,61,ee59fe00,0.0,0.0,0.0,0.0,0.0,0.0
2026-05-25 09:59:47.653282,1779717587.653282,2820847,-3936991,164320494,26498,43981,-45853,61,ee59fe00,0.0,0.0,0.0,0.0,0.0,0.0
2026-05-25 09:59:47.661970,1779717587.661970,2820847,-3936991,164320494,26498,43981,-45853,61,ee59fe00,0.0,0.0,0.0,0.0,0.0,0.0
2026-05-25 09:59:47.668930,1779717587.668930,2839260,-3945915,164324140,14973,50682,-6781,61,ee59fe00,0.0,0.0,0.0,0.0,0.0,0.0
2026-05-25 09:59:47.677505,1779717587.677505,2839260,-3945915,164324140,14973,50682,-6781,61,ee59fe00,0.0,0.0,0.0,0.0,0.0,0.0
2026-05-25 09:59:47.684621,1779717587.684621,2879191,-3897423,164289961,23960,75188,-4727,61,ee59fe00,0.0,0.0,0.0,0.0,0.0,0.0
2026-05-25 09:59:47.693193,1779717587.693193,2879191,-3897423,164289961,23960,75188,-4727,61,ee59fe00,0.0,0.0,0.0,0.0,0.0,0.0
2026-05-25 09:59:47.700551,1779717587.700551,2910652,-3849642,164277614,41980,124800,21476,61,ee59fe00,0.0,0.0,0.0,0.0,0.0,0.0
2026-05-25 09:59:47.710677,1779717587.710677,2910652,-3849642,164277614,41980,124800,21476,61,ee59fe00,0.0,0.0,0.0,0.0,0.0,0.0
2026-05-25 09:59:47.718408,1779717587.718408,2896551,-3800125,164277780,68820,150329,23722,61,ee59fe00,0.0,0.0,0.0,0.0,0.0,0.0
2026-05-25 09:59:47.728465,1779717587.728465,2896551,-3800125,164277780,68820,150329,23722,61,ee59fe00,0.0,0.0,0.0,0.0,0.0,0.0
2026-05-25 09:59:47.741690,1779717587.741690,2876178,-3762161,164290732,60118,201898,29289,61,ee59fe00,0.0,0.0,0.0,0.0,0.0,0.0
2026-05-25 09:59:47.752828,1779717587.752828,2876178,-3762161,164290732,60118,201898,29289,61,ee59fe00,0.0,0.0,0.0,0.0,0.0,0.0
2026-05-25 09:59:47.760721,1779717587.760721,2791907,-3689102,164326124,45411,191751,14528,61,ee59fe00,0.0,0.0,0.0,0.0,0.0,0.0
2026-05-25 09:59:47.770437,1779717587.770437,2791907,-3689102,164326124,45411,191751,14528,61,ee59fe00,0.0,0.0,0.0,0.0,0.0,0.0
2026-05-25 09:59:47.778054,1779717587.778054,2726089,-3650383,164329296,-3259,192336,5117,61,ee59fe00,0.0,0.0,0.0,0.0,0.0,0.0
2026-05-25 09:59:47.787600,1779717587.787600,2726089,-3650383,164329296,-3259,192336,5117,61,ee59fe00,0.0,0.0,0.0,0.0,0.0,0.0
2026-05-25 09:59:47.799304,1779717587.799304,2619004,-3618854,164389022,-7556,143391,12865,61,ee59fe00,0.0,0.0,0.0,0.0,0.0,0.0
2026-05-25 09:59:47.808729,1779717587.808729,2619004,-3618854,164389022,-7556,143391,12865,61,ee59fe00,0.0,0.0,0.0,0.0,0.0,0.0
2026-05-25 09:59:47.822422,1779717587.822422,2564002,-3668287,164433296,-23444,114993,-9090,61,ee59fe00,0.0,0.0,0.0,0.0,0.0,0.0
2026-05-25 09:59:47.838942,1779717587.838942,2564002,-3668287,164433296,-23444,114993,-9090,61,ee59fe00,0.0,0.0,0.0,0.0,0.0,0.0
2026-05-25 09:59:47.852500,1779717587.852500,2582902,-3754806,164401226,-3407,70266,-29180,61,ee59fe00,0.0,0.0,0.0,0.0,0.0,0.0
2026-05-25 09:59:47.866114,1779717587.866114,2582902,-3754806,164401226,-3407,70266,-29180,61,ee59fe00,0.0,0.0,0.0,0.0,0.0,0.0
2026-05-25 09:59:47.877259,1779717587.877259,2644520,-3833927,164406516,14402,67496,-45401,61,ee59fe00,0.0,0.0,0.0,0.0,0.0,0.0
2026-05-25 09:59:47.890736,1779717587.890736,2644520,-3833927,164406516,14402,67496,-45401,61,ee59fe00,0.0,0.0,0.0,0.0,0.0,0.0
2026-05-25 09:59:47.904087,1779717587.904087,2713183,-3868443,164343726,49729,39323,-25303,61,ee59fe00,0.0,0.0,0.0,0.0,0.0,0.0
2026-05-25 09:59:47.916371,1779717587.916371,2713183,-3868443,164343726,49729,39323,-25303,61,ee59fe00,0.0,0.0,0.0,0.0,0.0,0.0
2026-05-25 09:59:47.924284,1779717587.924284,2741543,-3921462,164337967,110936,27444,-1254,61,ee58fe00,0.0,0.0,0.0,0.0,0.0,0.0
2026-05-25 09:59:47.933018,1779717587.933018,2741543,-3921462,164337967,110936,27444,-1254,61,ee58fe00,0.0,0.0,0.0,0.0,0.0,0.0
2026-05-25 09:59:47.943674,1779717587.943674,2787122,-3909496,164286907,121036,-22901,1453,61,ee58fe00,0.0,0.0,0.0,0.0,0.0,0.0
2026-05-25 09:59:47.953150,1779717587.953150,2787122,-3909496,164286907,121036,-22901,1453,61,ee58fe00,0.0,0.0,0.0,0.0,0.0,0.0
2026-05-25 09:59:47.961918,1779717587.961918,2839312,-3910944,164248563,89774,5874,-4187,61,ee58fe00,0.0,0.0,0.0,0.0,0.0,0.0
2026-05-25 09:59:47.970981,1779717587.970981,2839312,-3910944,164248563,89774,5874,-4187,61,ee58fe00,0.0,0.0,0.0,0.0,0.0,0.0
2026-05-25 09:59:47.978177,1779717587.978177,2869199,-3842027,164391055,83638,33405,-37358,61,ee59fe00,0.0,0.0,0.0,0.0,0.0,0.0
2026-05-25 09:59:47.986820,1779717587.986820,2869199,-3842027,164391055,83638,33405,-37358,61,ee59fe00,0.0,0.0,0.0,0.0,0.0,0.0
2026-05-25 09:59:47.993764,1779717587.993764,2818667,-3787249,164308266,117957,-7955,-22202,61,ee59fe00,0.0,0.0,0.0,0.0,0.0,0.0
2026-05-25 09:59:48.006352,1779717588.006352,2818667,-3787249,164308266,117957,-7955,-22202,61,ee59fe00,0.0,0.0,0.0,0.0,0.0,0.0
2026-05-25 09:59:48.016518,1779717588.016518,2824385,-3684720,164316445,105418,39992,-6582,61,ee59fe00,0.0,0.0,0.0,0.0,0.0,0.0
2026-05-25 09:59:48.024601,1779717588.024601,2824385,-3684720,164316445,105418,39992,-6582,61,ee59fe00,0.0,0.0,0.0,0.0,0.0,0.0
2026-05-25 09:59:48.030991,1779717588.030991,2640085,-3722398,164243945,75362,5187,30164,61,ee58fe00,0.0,0.0,0.0,0.0,0.0,0.0
2026-05-25 09:59:48.038974,1779717588.038974,2640085,-3722398,164243945,75362,5187,30164,61,ee58fe00,0.0,0.0,0.0,0.0,0.0,0.0
2026-05-25 09:59:48.050933,1779717588.050933,2851900,-3743583,164338230,8844,80204,5149,61,ee58fe00,0.0,0.0,0.0,0.0,0.0,0.0
2026-05-25 09:59:48.087160,1779717588.087160,2851900,-3743583,164338230,8844,80204,5149,61,ee58fe00,0.0,0.0,0.0,0.0,0.0,0.0
2026-05-25 09:59:48.112484,1779717588.112484,2763016,-3868026,164362503,35560,45089,-10946,61,ee58fe00,0.0,0.0,0.0,0.0,0.0,0.0
2026-05-25 09:59:48.123496,1779717588.123496,2763016,-3868026,164362503,35560,45089,-10946,61,ee58fe00,0.0,0.0,0.0,0.0,0.0,0.0
2026-05-25 09:59:48.130986,1779717588.130986,3005428,-3757309,164386499,55854,64340,-28019,61,ee59fe00,0.0,0.0,0.0,0.0,0.0,0.0
2026-05-25 09:59:48.139523,1779717588.139523,3005428,-3757309,164386499,55854,64340,-28019,61,ee59fe00,0.0,0.0,0.0,0.0,0.0,0.0
2026-05-25 09:59:48.149695,1779717588.149695,2815069,-3803535,164314265,38793,109281,-17898,61,ee59fe00,0.0,0.0,0.0,0.0,0.0,0.0
2026-05-25 09:59:48.158751,1779717588.158751,2815069,-3803535,164314265,38793,109281,-17898,61,ee59fe00,0.0,0.0,0.0,0.0,0.0,0.0
2026-05-25 09:59:48.166532,1779717588.166532,2803227,-3769625,164385274,28392,159339,-10919,61,ee59fe00,0.0,0.0,0.0,0.0,0.0,0.0
2026-05-25 09:59:48.175247,1779717588.175247,2803227,-3769625,164385274,28392,159339,-10919,61,ee59fe00,0.0,0.0,0.0,0.0,0.0,0.0
2026-05-25 09:59:48.182751,1779717588.182751,2593487,-3900491,164388370,28999,149556,-14920,61,ee59fe00,0.0,0.0,0.0,0.0,0.0,0.0
2026-05-25 09:59:48.194054,1779717588.194054,2593487,-3900491,164388370,28999,149556,-14920,61,ee59fe00,0.0,0.0,0.0,0.0,0.0,0.0
2026-05-25 09:59:48.206446,1779717588.206446,2627964,-3847679,164494990,41570,121987,-14356,61,ee59fe00,0.0,0.0,0.0,0.0,0.0,0.0
2026-05-25 09:59:48.220531,1779717588.220531,2627964,-3847679,164494990,41570,121987,-14356,61,ee59fe00,0.0,0.0,0.0,0.0,0.0,0.0
2026-05-25 09:59:48.227909,1779717588.227909,2531592,-3882696,164492921,58119,41692,-28915,61,ee59fe00,0.0,0.0,0.0,0.0,0.0,0.0
2026-05-25 09:59:48.241028,1779717588.241028,2531592,-3882696,164492921,58119,41692,-28915,61,ee59fe00,0.0,0.0,0.0,0.0,0.0,0.0
2026-05-25 09:59:48.251995,1779717588.251995,2737907,-3797642,164476229,98556,9786,-25427,61,ee59fe00,0.0,0.0,0.0,0.0,0.0,0.0
2026-05-25 09:59:48.267068,1779717588.267068,2737907,-3797642,164476229,98556,9786,-25427,61,ee59fe00,0.0,0.0,0.0,0.0,0.0,0.0
2026-05-25 09:59:48.278081,1779717588.278081,2726070,-3770024,164429755,102829,-16868,-11582,61,ee59fe00,0.0,0.0,0.0,0.0,0.0,0.0
2026-05-25 09:59:48.294851,1779717588.294851,2726070,-3770024,164429755,102829,-16868,-11582,61,ee59fe00,0.0,0.0,0.0,0.0,0.0,0.0
2026-05-25 09:59:48.308569,1779717588.308569,2864607,-3723223,164422862,87187,-23965,-5570,61,ee59fe00,0.0,0.0,0.0,0.0,0.0,0.0
2026-05-25 09:59:48.325842,1779717588.325842,2864607,-3723223,164422862,87187,-23965,-5570,61,ee59fe00,0.0,0.0,0.0,0.0,0.0,0.0
2026-05-25 09:59:48.339909,1779717588.339909,2765278,-3781242,164421014,60496,-26574,9356,61,ee58fe00,0.0,0.0,0.0,0.0,0.0,0.0
2026-05-25 09:59:48.357339,1779717588.357339,2765278,-3781242,164421014,60496,-26574,9356,61,ee58fe00,0.0,0.0,0.0,0.0,0.0,0.0
2026-05-25 09:59:48.371065,1779717588.371065,2841363,-3735473,164405175,69146,-46475,-5206,61,ee58fe00,0.0,0.0,0.0,0.0,0.0,0.0
2026-05-25 09:59:48.388087,1779717588.388087,2841363,-3735473,164405175,69146,-46475,-5206,61,ee58fe00,0.0,0.0,0.0,0.0,0.0,0.0
2026-05-25 09:59:48.395933,1779717588.395933,2776023,-3777343,164376882,80673,-80669,-13379,61,ee58fe00,0.0,0.0,0.0,0.0,0.0,0.0
2026-05-25 09:59:48.411313,1779717588.411313,2776023,-3777343,164376882,80673,-80669,-13379,61,ee58fe00,0.0,0.0,0.0,0.0,0.0,0.0
2026-05-25 09:59:48.424195,1779717588.424195,2820022,-3679314,164374584,70249,-89344,-31441,61,ee58fe00,0.0,0.0,0.0,0.0,0.0,0.0
