sys_datetime,unix_timestamp,raw_accel_x_lsb,raw_accel_y_lsb,raw_accel_z_lsb,raw_gyro_x_lsb,raw_gyro_y_lsb,raw_gyro_z_lsb,raw_accel_x_ms2,raw_accel_y_ms2,raw_accel_z_ms2,raw_gyro_x_degs,raw_gyro_y_degs,raw_gyro_z_degs,imu_type,imu_status_hex,veh_lat_acc_ms2,veh_long_acc_ms2,veh_vert_acc_ms2,veh_pitch_rate_degs,veh_roll_rate_degs,veh_yaw_rate_degs
2026-05-26 15:57:39.298561,1779825459.298561,-9270795,149824,164318583,50810,188731,17550,-0.5549038194992066,0.008967721738281252,9.835295605328065,0.011746943893432617,0.04363338846588135,0.004057446670532226,61,f253fe00,,,,,,
2026-05-26 15:57:39.300852,1779825459.300852,-9270795,149824,164318583,50810,188731,17550,-0.5549038194992066,0.008967721738281252,9.835295605328065,0.011746943893432617,0.04363338846588135,0.004057446670532226,61,f253fe00,5.6546187201e-05,4.6853450977e-06,7.87882964418e-05,6.172177923262997e-05,0.00019078765604772172,-0.0004886050824990959
2026-05-26 15:57:39.302095,1779825459.302095,-9473049,329024,163881564,30051,-160694,6765,-0.5670097410635376,0.019693745175781253,9.80913781494507,0.006947597145080566,-0.03715141511535645,0.0015640243148803711,61,f253fe00,5.6546187201e-05,4.6853450977e-06,7.87882964418e-05,6.172177923262997e-05,0.00019078765604772172,-0.0004886050824990959
2026-05-26 15:57:39.304286,1779825459.304286,-9473049,329024,163881564,30051,-160694,6765,-0.5670097410635376,0.019693745175781253,9.80913781494507,0.006947597145080566,-0.03715141511535645,0.0015640243148803711,61,f253fe00,-2.87635396563e-05,0.0001066549702684,-5.18601685559e-05,0.00013320332068806769,-0.00012699348089560447,-0.000987702817527248
2026-05-26 15:57:39.305925,1779825459.305925,-9001162,82410,164055627,99955,113075,14046,-0.5387649250933839,0.0049326539703369145,9.819556363034364,0.023108950538635254,0.026142209815979003,0.003247344497680664,61,f253fe00,-2.87635396563e-05,0.0001066549702684,-5.18601685559e-05,0.00013320332068806769,-0.00012699348089560447,-0.000987702817527248
2026-05-26 15:57:39.308210,1779825459.308210,-9001162,82410,164055627,99955,113075,14046,-0.5387649250933839,0.0049326539703369145,9.819556363034364,0.023108950538635254,0.026142209815979003,0.003247344497680664,61,f253fe00,0.0002629373525859,-1.91281253537e-05,-3.50132384786e-05,0.00017496499928057894,-0.00011947278716118022,-0.000984924007452042
2026-05-26 15:57:39.309366,1779825459.309366,-9473970,130495,164111296,-45089,-239045,14563,-0.5670648675567628,0.007810783641052247,9.822888433339845,-0.010424285636901856,-0.05526566036224365,0.0033668715591430665,61,f253fe00,0.0002629373525859,-1.91281253537e-05,-3.50132384786e-05,0.00017496499928057894,-0.00011947278716118022,-0.000984924007452042
2026-05-26 15:57:39.311457,1779825459.311457,-9473970,130495,164111296,-45089,-239045,14563,-0.5670648675567628,0.007810783641052247,9.822888433339845,-0.010424285636901856,-0.05526566036224365,0.0033668715591430665,61,f253fe00,-8.74019744273e-05,6.0605333381e-05,9.9968153291e-06,0.0001573168823394576,-0.00017705676154023458,-0.0014721898428392676
2026-05-26 15:57:39.312655,1779825459.312655,-9304506,-25362,163988555,37239,199526,19697,-0.5569215928033449,-0.0015180435626220706,9.815541765690615,0.008609416328430175,0.046129122756958005,0.004553819206237793,61,f253fe00,-8.74019744273e-05,6.0605333381e-05,9.9968153291e-06,0.0001573168823394576,-0.00017705676154023458,-0.0014721898428392676
2026-05-26 15:57:39.315842,1779825459.315842,-9304506,-25362,163988555,37239,199526,19697,-0.5569215928033449,-0.0015180435626220706,9.815541765690615,0.008609416328430175,0.046129122756958005,0.004553819206237793,61,f253fe00,0.0001380265455413,-0.0001015554904625,4.2091831468e-06,2.3420567880377264e-05,0.00013676382741359825,-0.0009762558804710204
2026-05-26 15:57:39.317568,1779825459.317568,-9498854,-171265,164006575,22854,-153148,-3746,-0.568554300409546,-0.010251073683166505,9.816620353538514,0.005283697219848633,-0.03540682864379883,-0.000866051010131836,61,f253fe00,0.0001380265455413,-0.0001015554904625,4.2091831468e-06,2.3420567880377264e-05,0.00013676382741359825,-0.0009762558804710204
2026-05-26 15:57:39.320714,1779825459.320714,-9498854,-171265,164006575,22854,-153148,-3746,-0.568554300409546,-0.010251073683166505,9.816620353538514,0.005283697219848633,-0.03540682864379883,-0.000866051010131836,61,f253fe00,-6.80109230432e-05,-0.0001372806350905,-8.17212576625e-05,7.435697355185059e-05,-0.0001427292156852313,-0.001009041665184439
2026-05-26 15:57:39.322768,1779825459.322768,-9275581,-224422,164699651,104533,202191,-14907,-0.5551902857278443,-0.01343278812438965,9.858104446283876,0.02416735457611084,0.04674525354766846,-0.003446402137756348,61,f253fe00,-6.80109230432e-05,-0.0001372806350905,-8.17212576625e-05,7.435697355185059e-05,-0.0001427292156852313,-0.001009041665184439
2026-05-26 15:57:39.326736,1779825459.326736,-9275581,-224422,164699651,104533,202191,-14907,-0.5551902857278443,-0.01343278812438965,9.858104446283876,0.02416735457611084,0.04674525354766846,-0.003446402137756348,61,f253fe00,0.0001454476697731,-0.0002410872011568,0.0003112577904117,0.00017571240551840343,0.0001076873522144695,-0.0010476518324253202
2026-05-26 15:57:39.328873,1779825459.328873,-10058444,252433,164381745,25866,-91212,-31280,-0.6020485830847169,0.01510938769195557,9.839076169459535,0.005980052169799805,-0.021087625396728517,-0.0072317340087890624,61,f253fe00,0.0001454476697731,-0.0002410872011568,0.0003112577904117,0.00017571240551840343,0.0001076873522144695,-0.0010476518324253202
2026-05-26 15:57:39.332505,1779825459.332505,-10058444,252433,164381745,25866,-91212,-31280,-0.6020485830847169,0.01510938769195557,9.839076169459535,0.005980052169799805,-0.021087625396728517,-0.0072317340087890624,61,f253fe00,-0.0002916969332031,7.311156992e-06,0.00025148197388,0.00015529984867318958,7.383559719895964e-05,-0.001069445374100326
2026-05-26 15:57:39.334703,1779825459.334703,-9378126,377798,164038582,12262,29398,-44745,-0.5613281209588624,0.022613114970092777,9.81853613385193,0.0028348952178955077,0.00679662776184082,-0.010344755058288574,61,f253fe00,-0.0002916969332031,7.311156992e-06,0.00025148197388,0.00015529984867318958,7.383559719895964e-05,-0.001069445374100326
2026-05-26 15:57:39.339541,1779825459.339541,-9378126,377798,164038582,12262,29398,-44745,-0.5613281209588624,0.022613114970092777,9.81853613385193,0.0028348952178955077,0.00679662776184082,-0.010344755058288574,61,f253fe00,-3.9348596082e-05,9.90676879969e-05,5.8058737683e-05,3.6843148034349527e-06,-0.0002451837266409235,-0.0011180255333356072
2026-05-26 15:57:39.341597,1779825459.341597,-9619413,465007,163595321,77753,22639,-33070,-0.5757703643582154,0.02783301328460694,9.792004728299867,0.017975991508483887,0.005233990608215332,-0.007645570449829102,61,f253fe00,-3.9348596082e-05,9.90676879969e-05,5.8058737683e-05,3.6843148034349527e-06,-0.0002451837266409235,-0.0011180255333356072
2026-05-26 15:57:39.343926,1779825459.343926,-9619413,465007,163595321,77753,22639,-33070,-0.5757703643582154,0.02783301328460694,9.792004728299867,0.017975991508483887,0.005233990608215332,-0.007645570449829102,61,f253fe00,-6.87776898037e-05,0.000183981669658,-0.0002265139663624,0.0001592084221255598,0.0001771520952772986,-0.0010981745840603567
2026-05-26 15:57:39.345259,1779825459.345259,-8852883,83531,164140839,48374,-48130,-14040,-0.5298896793942262,0.004999751471862794,9.824656730830995,0.011183756423950196,-0.011127345199584962,-0.003245957336425781,61,f253fe00,-6.87776898037e-05,0.000183981669658,-0.0002265139663624,0.0001592084221255598,0.0001771520952772986,-0.0010981745840603567
2026-05-26 15:57:39.348314,1779825459.348314,-8852883,83531,164140839,48374,-48130,-14040,-0.5298896793942262,0.004999751471862794,9.824656730830995,0.011183756423950196,-0.011127345199584962,-0.003245957336425781,61,f253fe00,0.0002309570176346,5.4026368218e-05,-5.10093477932e-05,9.562896496408601e-05,-0.0002888999683831081,-0.0010589190179936027
2026-05-26 15:57:39.349579,1779825459.349579,-9367209,262158,164301246,65868,140764,46310,-0.5606746834707642,0.015691477970581055,9.834257898473512,0.015228256256103516,0.0325437278137207,0.010706572952270508,61,f253fe00,0.0002309570176346,5.4026368218e-05,-5.10093477932e-05,9.562896496408601e-05,-0.0002888999683831081,-0.0010589190179936027
2026-05-26 15:57:39.351873,1779825459.351873,-9367209,262158,164301246,65868,140764,46310,-0.5606746834707642,0.015691477970581055,9.834257898473512,0.015228256256103516,0.0325437278137207,0.010706572952270508,61,f253fe00,0.0001779888361003,3.53214569311e-05,0.0001483450105884,0.00021178638372507482,0.000296942807534483,-0.0009413918017991125
2026-05-26 15:57:39.358378,1779825459.358378,-9365799,309485,164249192,-50087,-145593,56353,-0.5605902878622437,0.01852423751983643,9.831142204143068,-0.011579790962219238,-0.03366016143035889,0.013028449699401855,61,f253fe00,0.0001779888361003,3.53214569311e-05,0.0001483450105884,0.00021178638372507482,0.000296942807534483,-0.0009413918017991125
2026-05-26 15:57:39.370201,1779825459.370201,-9365799,309485,164249192,-50087,-145593,56353,-0.5605902878622437,0.01852423751983643,9.831142204143068,-0.011579790962219238,-0.03366016143035889,0.013028449699401855,61,f253fe00,-5.2176797686e-06,0.0001117595426463,0.0001187949287854,-7.063657792301955e-05,-0.000319842304694846,-0.0008884139699921845
2026-05-26 15:57:39.374381,1779825459.374381,-9287307,275882,164174278,-7955,62815,65132,-0.5558921459445191,0.016512928560180665,9.826658223563845,-0.0018391446304321288,0.014522422370910644,0.01505809780883789,61,f253fe00,-5.2176797686e-06,0.0001117595426463,0.0001187949287854,-7.063657792301955e-05,-0.000319842304694846,-0.0008884139699921845
2026-05-26 15:57:39.377201,1779825459.377201,-9287307,275882,164174278,-7955,62815,65132,-0.5558921459445191,0.016512928560180665,9.826658223563845,-0.0018391446304321288,0.014522422370910644,0.01505809780883789,61,f253fe00,5.12127868849e-05,4.18279386818e-05,3.55542358336e-05,-6.194003347867793e-06,4.5225770065843735e-05,-0.00043358365511504725
2026-05-26 15:57:39.536355,1779825459.536355,-9754647,381687,164015213,-16539,-4594,51384,-0.5838648010409546,0.022845891226501467,9.817137381387026,-0.0038237099990844725,-0.0010621031341552735,0.011879648986816406,61,f253fe00,5.12127868849e-05,4.18279386818e-05,3.55542358336e-05,-6.194003347867793e-06,4.5225770065843735e-05,-0.00043358365511504725
2026-05-26 15:57:39.538565,1779825459.538565,-9754647,381687,164015213,-16539,-4594,51384,-0.5838648010409546,0.022845891226501467,9.817137381387026,-0.0038237099990844725,-0.0010621031341552735,0.011879648986816406,61,f253fe00,-0.0001294886164461,0.0001660421725921,-1.61074584838e-05,9.672505380108413e-06,0.00014006610437561324,-0.0008871570217817021
2026-05-26 15:57:39.553761,1779825459.553761,-9203463,-51829,164282006,1611,-19975,5388,-0.5508736598446656,-0.0031022269461059575,9.833106287474976,0.0003724527969360352,-0.004618091011047363,0.0012456708068847655,61,f253fe00,-0.0001294886164461,0.0001660421725921,-1.61074584838e-05,9.672505380108413e-06,0.00014006610437561324,-0.0008871570217817021
2026-05-26 15:57:39.555811,1779825459.555811,-9203463,-51829,164282006,1611,-19975,5388,-0.5508736598446656,-0.0031022269461059575,9.833106287474976,0.0003724527969360352,-0.004618091011047363,0.0012456708068847655,61,f253fe00,4.87249390182e-05,-4.69009600845e-05,9.49259961341e-05,-2.7422626644939046e-05,-0.00024192667992982514,-0.0009791787111943146
2026-05-26 15:57:39.556931,1779825459.556931,-9665385,29734,163970465,36324,124384,-4938,-0.578522020326233,0.0017797298040771487,9.81445898798981,0.008397874237060546,0.028756777587890626,-0.0011416337127685547,61,f252fe00,4.87249390182e-05,-4.69009600845e-05,9.49259961341e-05,-2.7422626644939046e-05,-0.00024192667992982514,-0.0009791787111943146
2026-05-26 15:57:39.558985,1779825459.558985,-9665385,29734,163970465,36324,124384,-4938,-0.578522020326233,0.0017797298040771487,9.81445898798981,0.008397874237060546,0.028756777587890626,-0.0011416337127685547,61,f252fe00,-1.76820807328e-05,-0.0001086075713478,2.81748511838e-05,0.00012510459610998124,0.0002985793469076311,-0.0010211858162469105
2026-05-26 15:57:39.560067,1779825459.560067,-9470478,128655,163898210,5589,165122,3311,-0.5668558537518311,0.00770065036468506,9.810134161965944,0.00129214070892334,0.03817514012145996,0.0007654818191528321,61,f252fe00,-1.76820807328e-05,-0.0001086075713478,2.81748511838e-05,0.00012510459610998124,0.0002985793469076311,-0.0010211858162469105
2026-05-26 15:57:39.561915,1779825459.561915,-9470478,128655,163898210,5589,165122,3311,-0.5668558537518311,0.00770065036468506,9.810134161965944,0.00129214070892334,0.03817514012145996,0.0007654818191528321,61,f252fe00,-0.0001157388240737,-6.24696876116e-05,-0.0002008683032095,-5.252043462007254e-05,-5.006226261321972e-05,-0.0015190507345514911
2026-05-26 15:57:39.562971,1779825459.562971,-9846548,376441,164124210,-43470,34212,48932,-0.5893655392102052,0.022531891678771974,9.823661401345827,-0.010049983291625977,0.007909593475341797,0.011312762420654297,61,f252fe00,-0.0001157388240737,-6.24696876116e-05,-0.0002008683032095,-5.252043462007254e-05,-5.006226261321972e-05,-0.0015190507345514911
2026-05-26 15:57:39.565097,1779825459.565097,-9846548,376441,164124210,-43470,34212,48932,-0.5893655392102052,0.022531891678771974,9.823661401345827,-0.010049983291625977,0.007909593475341797,0.011312762420654297,61,f252fe00,-0.0001928106401938,0.0001390098958134,-2.209909001e-06,-4.355638770336599e-05,0.0002621061505080584,-0.0009336803006227006
2026-05-26 15:57:39.566166,1779825459.566166,-9138698,136989,164352717,-53387,8964,47112,-0.5469971480816651,0.008199482280578615,9.83733869731476,-0.012342729652404785,0.002072418914794922,0.010891990173339843,61,f252fe00,-0.0001928106401938,0.0001390098958134,-2.209909001e-06,-4.355638770336599e-05,0.0002621061505080584,-0.0009336803006227006
2026-05-26 15:57:39.568071,1779825459.568071,-9138698,136989,164352717,-53387,8964,47112,-0.5469971480816651,0.008199482280578615,9.83733869731476,-0.012342729652404785,0.002072418914794922,0.010891990173339843,61,f252fe00,8.69133938591e-05,5.30717380727e-05,0.0001633517827813,-0.00014081959578045585,-0.00018781212649989664,-0.0009124730217223713
2026-05-26 15:57:39.569114,1779825459.569114,-9415870,184391,163866453,-6675,80196,36978,-0.5635872896453858,0.011036730957946779,9.808233345412905,-0.001543216896057129,0.018540797332763672,0.008549074813842773,61,f252fe00,8.69133938591e-05,5.30717380727e-05,0.0001633517827813,-0.00014081959578045585,-0.00018781212649989664,-0.0009124730217223713
2026-05-26 15:57:39.571101,1779825459.571101,-9415870,184391,163866453,-6675,80196,36978,-0.5635872896453858,0.011036730957946779,9.808233345412905,-0.001543216896057129,0.018540797332763672,0.008549074813842773,61,f252fe00,9.74254706667e-05,5.5162448489e-06,-3.14435374778e-05,3.0901217657525248e-06,0.00024926140320072305,-0.0009168359457616537
2026-05-26 15:57:39.573083,1779825459.573083,-9415870,184391,163866453,-6675,80196,36978,-0.5635872896453858,0.011036730957946779,9.808233345412905,-0.001543216896057129,0.018540797332763672,0.008549074813842773,61,f252fe00,0.0001520652080957,-3.24093105466e-05,-0.000129260289485,-7.25659830803257e-05,-0.00022885424155529125,-0.0009471125062842845
2026-05-26 15:57:39.574189,1779825459.574189,-9078741,60221,163855454,-29375,-51209,27085,-0.5434084193582154,0.0036045304544067387,9.807574999811402,-0.0067913103103637695,-0.011839190116882324,0.006261877098083496,61,f252fe00,0.0001520652080957,-3.24093105466e-05,-0.000129260289485,-7.25659830803257e-05,-0.00022885424155529125,-0.0009471125062842845
2026-05-26 15:57:39.575285,1779825459.575285,-9404379,204247,163772935,40032,211614,26414,-0.5628994953634644,0.012225212662048342,9.802635821641543,0.009255139892578125,0.04892379029846192,0.006106746231079102,61,f252fe00,0.0001520652080957,-3.24093105466e-05,-0.000129260289485,-7.25659830803257e-05,-0.00022885424155529125,-0.0009471125062842845
2026-05-26 15:57:39.577403,1779825459.577403,-9404379,204247,163772935,40032,211614,26414,-0.5628994953634644,0.012225212662048342,9.802635821641543,0.009255139892578125,0.04892379029846192,0.006106746231079102,61,f252fe00,0.000133858906602,2.33124955961e-05,-0.0001554647109081,6.302565749364941e-05,0.0003870524491909588,-0.0009470385035023726
2026-05-26 15:57:39.578784,1779825459.578784,-9260488,50387,163954881,-7401,-95130,25373,-0.5542868935864259,0.0030159159762573246,9.813526207023012,-0.0017110634078979492,-0.02199344169616699,0.0058660737533569336,61,f253fe00,0.000133858906602,2.33124955961e-05,-0.0001554647109081,6.302565749364941e-05,0.0003870524491909588,-0.0009470385035023726
2026-05-26 15:57:39.582991,1779825459.582991,-9260488,50387,163954881,-7401,-95130,25373,-0.5542868935864259,0.0030159159762573246,9.813526207023012,-0.0017110634078979492,-0.02199344169616699,0.0058660737533569336,61,f253fe00,5.42060636224e-05,1.92285517212e-05,-0.0001082103022708,3.184131227756487e-05,-0.00014928903280678652,-0.0009474328533301845
2026-05-26 15:57:39.585415,1779825459.585415,-9283140,-68503,164118452,75892,232765,29408,-0.5556427299865724,-0.00410024990814209,9.823316756016848,0.017545740325927733,0.05381376491546631,0.006798939697265625,61,f253fe00,5.42060636224e-05,1.92285517212e-05,-0.0001082103022708,3.184131227756487e-05,-0.00014928903280678652,-0.0009474328533301845
2026-05-26 15:57:39.589937,1779825459.589937,-9283140,-68503,164118452,75892,232765,29408,-0.5556427299865724,-0.00410024990814209,9.823316756016848,0.017545740325927733,0.05381376491546631,0.006798939697265625,61,f253fe00,0.0001869626127326,-0.000117177596987,3.42461311309e-05,0.00014131950674510724,0.00029032416721387665,-0.0009447119317077645
2026-05-26 15:57:39.592268,1779825459.592268,-9759315,136762,164133832,2120,-73403,11186,-0.5841442043746949,0.008185895186157227,9.824237326555178,0.0004901303100585938,-0.01697029959869385,0.0025861309661865234,61,f253fe00,0.0001869626127326,-0.000117177596987,3.42461311309e-05,0.00014131950674510724,0.00029032416721387665,-0.0009447119317077645
2026-05-26 15:57:39.594732,1779825459.594732,-9759315,136762,164133832,2120,-73403,11186,-0.5841442043746949,0.008185895186157227,9.824237326555178,0.0004901303100585938,-0.01697029959869385,0.0025861309661865234,61,f253fe00,-0.0001470126973222,-4.46258730422e-05,4.05618879422e-05,9.684615946625199e-05,1.821704274630333e-05,-0.0009743605723758773
2026-05-26 15:57:39.595840,1779825459.595840,-9635415,111175,164282286,31759,150215,17537,-0.5767281647323609,0.006654384239196778,9.833123046886598,0.007342475715637207,0.034728737983703614,0.004054441154479981,61,f252fe00,-0.0001470126973222,-4.46258730422e-05,4.05618879422e-05,9.684615946625199e-05,1.821704274630333e-05,-0.0009743605723758773
2026-05-26 15:57:39.597785,1779825459.597785,-9635415,111175,164282286,31759,150215,17537,-0.5767281647323609,0.006654384239196778,9.833123046886598,0.007342475715637207,0.034728737983703614,0.004054441154479981,61,f252fe00,-7.93405239499e-05,-3.49357998921e-05,0.0001281359933379,-2.955156961988136e-06,6.717832961652124e-05,-0.0009871161577787628
2026-05-26 15:57:39.598900,1779825459.598900,-10094162,335159,163906832,-32465,-56330,7823,-0.6041864854571534,0.02006095585540772,9.81065023213379,-0.007505698356628418,-0.013023132247924805,0.001808627082824707,61,f252fe00,-7.93405239499e-05,-3.49357998921e-05,0.0001281359933379,-2.955156961988136e-06,6.717832961652124e-05,-0.0009871161577787628
2026-05-26 15:57:39.600914,1779825459.600914,-10094162,335159,163906832,-32465,-56330,7823,-0.6041864854571534,0.02006095585540772,9.81065023213379,-0.007505698356628418,-0.013023132247924805,0.001808627082824707,61,f252fe00,-0.000349423274722,0.0001445081089176,-3.0315448727e-05,-3.4862572108033552e-06,8.266510715667616e-05,-0.0009895491347286086
2026-05-26 15:57:39.602011,1779825459.602011,-9262550,74859,163750148,23063,18835,10078,-0.554410314682007,0.004480688551940918,9.801271904810793,0.005332016670227051,0.004354530372619629,0.002329968521118164,61,f252fe00,-0.000349423274722,0.0001445081089176,-3.0315448727e-05,-3.4862572108033552e-06,8.266510715667616e-05,-0.0009895491347286086
2026-05-26 15:57:39.604042,1779825459.604042,-9262550,74859,163750148,23063,18835,10078,-0.554410314682007,0.004480688551940918,9.801271904810793,0.005332016670227051,0.004354530372619629,0.002329968521118164,61,f252fe00,5.3417099482e-06,-1.22036986323e-05,-0.0001551483777365,5.881640571975357e-06,-0.00024087270181200277,-0.0010006026025473184
2026-05-26 15:57:39.605176,1779825459.605176,-9368409,-19460,163589089,106638,228940,19128,-0.5607465095205689,-0.0011647791076660158,9.791631711681214,0.024654016983032226,0.05292944961547852,0.004422270080566407,61,f252fe00,5.3417099482e-06,-1.22036986323e-05,-0.0001551483777365,5.881640571975357e-06,-0.00024087270181200277,-0.0010006026025473184
2026-05-26 15:57:39.607380,1779825459.607380,-9368409,-19460,163589089,106638,228940,19128,-0.5607465095205689,-0.0011647791076660158,9.791631711681214,0.024654016983032226,0.05292944961547852,0.004422270080566407,61,f252fe00,3.00198094058e-05,-4.50433868762e-05,-0.0001389643035312,0.00012617646389530577,0.0002373727135988842,-0.0004863794903218286
2026-05-26 15:57:39.608601,1779825459.608601,-9007495,37226,164146808,-21020,-15438,40237,-0.5391439870712281,0.0022281637750244145,9.825014005573731,-0.004859688262939453,-0.0035691659088134767,0.009302534568786621,61,f252fe00,3.00198094058e-05,-4.50433868762e-05,-0.0001389643035312,0.00012617646389530577,0.0002373727135988842,-0.0004863794903218286
2026-05-26 15:57:39.610824,1779825459.610824,-9007495,37226,164146808,-21020,-15438,40237,-0.5391439870712281,0.0022281637750244145,9.825014005573731,-0.004859688262939453,-0.0035691659088134767,0.009302534568786621,61,f252fe00,0.000126801687531,-4.08010885363e-05,-0.0002198287674368,0.00011650494049037373,-6.94058299896182e-05,-0.0014373552332087687
2026-05-26 15:57:39.611968,1779825459.611968,-9542945,292283,164223749,-34563,199825,58966,-0.5711933690444947,0.017494611095886233,9.829619312322084,-0.007990742408752442,0.04619824962615967,0.01363255842590332,61,f252fe00,0.000126801687531,-4.08010885363e-05,-0.0002198287674368,0.00011650494049037373,-6.94058299896182e-05,-0.0014373552332087687
2026-05-26 15:57:39.613902,1779825459.613902,-9542945,292283,164223749,-34563,199825,58966,-0.5711933690444947,0.017494611095886233,9.829619312322084,-0.007990742408752442,0.04619824962615967,0.01363255842590332,61,f252fe00,9.13282224637e-05,5.62440724643e-05,0.0001251387167766,-3.5496906219338537e-05,0.0004298200246754126,-0.0008808157883225497
2026-05-26 15:57:39.615068,1779825459.615068,-9424497,92240,164259354,-135950,-188045,63796,-0.5641036590884401,0.005521029028320313,9.83175045107483,-0.03143076210021973,-0.04347478969573974,0.014749223236083985,61,f252fe00,9.13282224637e-05,5.62440724643e-05,0.0001251387167766,-3.5496906219338537e-05,0.0004298200246754126,-0.0008808157883225497
2026-05-26 15:57:39.618092,1779825459.618092,-9424497,92240,164259354,-135950,-188045,63796,-0.5641036590884401,0.005521029028320313,9.83175045107483,-0.03143076210021973,-0.04347478969573974,0.014749223236083985,61,f252fe00,-7.34441581137e-05,3.65149522863e-05,0.0001049926860706,-0.00027780082842551165,-0.00035268966976043987,-0.000863322739492325
2026-05-26 15:57:39.619827,1779825459.619827,-9550159,-138918,164093875,-17068,117978,31833,-0.5716251633139039,-0.008314942655639649,9.821845698661805,-0.00394601138305664,0.02727575175476074,0.007359584037780762,61,f252fe00,-7.34441581137e-05,3.65149522863e-05,0.0001049926860706,-0.00027780082842551165,-0.00035268966976043987,-0.000863322739492325
2026-05-26 15:57:39.621984,1779825459.621984,-9550159,-138918,164093875,-17068,117978,31833,-0.5716251633139039,-0.008314942655639649,9.821845698661805,-0.00394601138305664,0.02727575175476074,0.007359584037780762,61,f252fe00,3.16334975145e-05,-0.0001374205825104,8.11311127444e-05,-0.00011432181780699426,6.95350380858797e-05,-0.000928503529374718
2026-05-26 15:57:39.623096,1779825459.623096,-9651641,-58952,163808296,5932,-246050,-5473,-0.5776993726358033,-0.0035285744067382815,9.804752355764162,0.0013714400939941406,-0.056885171127319334,-0.0012653222579956055,61,f252fe00,3.16334975145e-05,-0.0001374205825104,8.11311127444e-05,-0.00011432181780699426,6.95350380858797e-05,-0.000928503529374718
2026-05-26 15:57:39.625127,1779825459.625127,-9651641,-58952,163808296,5932,-246050,-5473,-0.5776993726358033,-0.0035285744067382815,9.804752355764162,0.0013714400939941406,-0.056885171127319334,-0.0012653222579956055,61,f252fe00,-0.0001596557589456,-0.0001087698734347,-0.0001331555969555,4.17616502311004e-05,-0.00040754597140694055,-0.0010149390479895595
2026-05-26 15:57:39.626374,1779825459.626374,-9511921,42838,163878456,80259,130655,-3109,-0.5693364262368775,0.0025640702679443363,9.808951785476076,0.01855536252593994,0.030206592292785644,-0.0007187807235717774,61,f252fe00,-0.0001596557589456,-0.0001087698734347,-0.0001331555969555,4.17616502311004e-05,-0.00040754597140694055,-0.0010149390479895595
2026-05-26 15:57:39.628470,1779825459.628470,-9511921,42838,163878456,80259,130655,-3109,-0.5693364262368775,0.0025640702679443363,9.808951785476076,0.01855536252593994,0.030206592292785644,-0.0007187807235717774,61,f252fe00,1.95459630286e-05,-0.0001193306950091,-0.0001091240998336,0.00013728381878998854,-3.622393465168059e-05,-0.0010385780412241006
2026-05-26 15:57:39.630668,1779825459.630668,-9887013,250607,164127936,-11443,-104939,-11024,-0.5917875734646607,0.015000092386169436,9.82388442123047,-0.002645547706604004,-0.02426121915435791,-0.0025486776123046875,61,f252fe00,1.95459630286e-05,-0.0001193306950091,-0.0001091240998336,0.00013728381878998854,-3.622393465168059e-05,-0.0010385780412241006
2026-05-26 15:57:39.635190,1779825459.635190,-9887013,250607,164127936,-11443,-104939,-11024,-0.5917875734646607,0.015000092386169436,9.82388442123047,-0.002645547706604004,-0.02426121915435791,-0.0025486776123046875,61,f252fe00,-0.0002436165448834,6.43560699361e-05,-2.001662166e-05,3.294737955844689e-05,-5.438859811201515e-05,-0.0010280541213453813
2026-05-26 15:57:39.636516,1779825459.636516,-9500347,-5649,164611734,-12807,76684,-6766,-0.5686436639865113,-0.0003381211294555665,9.852842170599978,-0.0029608956985473635,0.017728845611572265,-0.0015642555084228516,61,f252fe00,-0.0002436165448834,6.43560699361e-05,-2.001662166e-05,3.294737955844689e-05,-5.438859811201515e-05,-0.0010280541213453813
2026-05-26 15:57:39.638578,1779825459.638578,-9500347,-5649,164611734,-12807,76684,-6766,-0.5686436639865113,-0.0003381211294555665,9.852842170599978,-0.0029608956985473635,0.017728845611572265,-0.0015642555084228516,61,f252fe00,-3.52497529135e-05,-3.25757127277e-05,0.0002840277433188,-7.462997182965683e-05,-0.00011243197185602181,-0.0010414480066041395
2026-05-26 15:57:39.639813,1779825459.639813,-9904414,31576,164301566,-17953,-139744,-11582,-0.5928291110418702,0.001889982790527344,9.834277052086794,-0.0041506176681518556,-0.032307910400390626,-0.002677683609008789,61,f252fe00,-3.52497529135e-05,-3.25757127277e-05,0.0002840277433188,-7.462997182965683e-05,-0.00011243197185602181,-0.0010414480066041395
2026-05-26 15:57:39.642795,1779825459.642795,-9904414,31576,164301566,-17953,-139744,-11582,-0.5928291110418702,0.001889982790527344,9.834277052086794,-0.0041506176681518556,-0.032307910400390626,-0.002677683609008789,61,f252fe00,-0.0002291422186239,-4.95529350051e-05,0.0002042954312277,-3.1706765893419104e-07,-9.840058408664729e-05,-0.0010238288284147993
2026-05-26 15:57:39.644373,1779825459.644373,-9206144,-299508,164028878,31639,-108182,678,-0.5510341312109376,-0.017927063770751955,9.817955300529176,0.007314732490539551,-0.02501097981262207,0.00015674922180175781,61,f252fe00,-0.0002291422186239,-4.95529350051e-05,0.0002042954312277,-3.1706765893419104e-07,-9.840058408664729e-05,-0.0010238288284147993
2026-05-26 15:57:39.646435,1779825459.646435,-9206144,-299508,164028878,31639,-108182,678,-0.5510341312109376,-0.017927063770751955,9.817955300529176,0.007314732490539551,-0.02501097981262207,0.00015674922180175781,61,f252fe00,4.66363723186e-05,-0.0002128264211405,2.31567660753e-05,1.7719008946087405e-05,-0.0005036357666866131,-0.001035883636856203
2026-05-26 15:57:39.647561,1779825459.647561,-9507944,11906,163772346,80628,17081,23330,-0.5690983827368165,0.0007126341241455079,9.802600567022097,0.018640672943115236,0.003949016899108887,0.005393745346069336,61,f252fe00,4.66363723186e-05,-0.0002128264211405,2.31567660753e-05,1.7719008946087405e-05,-0.0005036357666866131,-0.001035883636856203
2026-05-26 15:57:39.650336,1779825459.650336,-9507944,11906,163772346,80628,17081,23330,-0.5690983827368165,0.0007126341241455079,9.802600567022097,0.018640672943115236,0.003949016899108887,0.005393745346069336,61,f252fe00,1.96561394914e-05,-0.0001173317414493,-0.0001478385902359,0.00020370321646373475,7.429830919961857e-05,-0.00097579069460476
2026-05-26 15:57:39.651435,1779825459.651435,-8954360,-95587,164116951,36269,-114686,19088,-0.535963589440918,-0.005721363852233888,9.82322691359955,0.00838515859222412,-0.02651466261291504,0.004413022338867188,61,f252fe00,1.96561394914e-05,-0.0001173317414493,-0.0001478385902359,0.00020370321646373475,7.429830919961857e-05,-0.00097579069460476
2026-05-26 15:57:39.653440,1779825459.653440,-8954360,-95587,164116951,36269,-114686,19088,-0.535963589440918,-0.005721363852233888,9.82322691359955,0.00838515859222412,-0.02651466261291504,0.004413022338867188,61,f252fe00,0.0001704074749316,-9.47888160834e-05,-2.73564894039e-05,9.364792745151113e-05,-0.0003915175298232143,-0.0009953593874407532
2026-05-26 15:57:39.654690,1779825459.654690,-9233877,26339,164172015,91739,160356,25042,-0.5526940910769654,0.001576521938171387,9.826522771604921,0.021209464393615724,0.037073271697998046,0.005789548690795898,61,f251fe00,0.0001704074749316,-9.47888160834e-05,-2.73564894039e-05,9.364792745151113e-05,-0.0003915175298232143,-0.0009953593874407532
2026-05-26 15:57:39.657707,1779825459.657707,-9233877,26339,164172015,91739,160356,25042,-0.5526940910769654,0.001576521938171387,9.826522771604921,0.021209464393615724,0.037073271697998046,0.005789548690795898,61,f251fe00,0.0002512517534406,-0.0001293514217132,9.34166734226e-05,0.00020726835403470082,0.00026101138651564036,-0.0009509441426144204
2026-05-26 15:57:39.658796,1779825459.658796,-9392321,-180118,164144115,44251,-121572,-15217,-0.5621777632730104,-0.010780970365600587,9.824852815946961,0.010230545448303223,-0.02810666134643555,-0.003518072135925293,61,f252fe00,0.0002512517534406,-0.0001293514217132,9.34166734226e-05,0.00020726835403470082,0.00026101138651564036,-0.0009509441426144204
2026-05-26 15:57:39.660803,1779825459.660803,-9392321,-180118,164144115,44251,-121572,-15217,-0.5621777632730104,-0.010780970365600587,9.824852815946961,0.010230545448303223,-0.02810666134643555,-0.003518072135925293,61,f252fe00,1.64302575701e-05,-0.0001527157367511,4.98402680264e-05,0.00011148923878825392,-0.00022455021808155096,-0.0010285335614676635
2026-05-26 15:57:39.662005,1779825459.662005,-9742344,-4930,164141241,65728,212788,2226,-0.5831284044653321,-0.0002950853546142579,9.824680792557679,0.01519588916015625,0.049195211517333984,0.0005146368255615234,61,f252fe00,1.64302575701e-05,-0.0001527157367511,4.98402680264e-05,0.00011148923878825392,-0.00022455021808155096,-0.0010285335614676635
2026-05-26 15:57:39.664367,1779825459.664367,-9742344,-4930,164141241,65728,212788,2226,-0.5831284044653321,-0.0002950853546142579,9.824680792557679,0.01519588916015625,0.049195211517333984,0.0005146368255615234,61,f252fe00,-6.47613481988e-05,-0.0001045872914969,6.22974174187e-05,0.00012270173085392603,0.00025519603861014477,-0.001016167537775969
2026-05-26 15:57:39.666270,1779825459.666270,-10140918,255311,164162341,94612,115059,-7601,-0.60698506777771,0.015281650501403812,9.825943733933412,0.021873683441162108,0.026600897804260254,-0.001757302116394043,61,f252fe00,-6.47613481988e-05,-0.0001045872914969,6.22974174187e-05,0.00012270173085392603,0.00025519603861014477,-0.001016167537775969
2026-05-26 15:57:39.668229,1779825459.668229,-10140918,255311,164162341,94612,115059,-7601,-0.60698506777771,0.015281650501403812,9.825943733933412,0.021873683441162108,0.026600897804260254,-0.001757302116394043,61,f252fe00,-0.0002013066021568,3.72141874023e-05,3.26922826237e-05,0.00011228059872129797,0.00010572335096022006,-0.0005172871083934805
2026-05-26 15:57:39.669322,1779825459.669322,-9597742,105973,164370060,97369,61872,10387,-0.5744732457537842,0.006343018313293458,9.838376763299562,0.022511084037780762,0.014304406860351563,0.002401407325744629,61,f252fe00,-0.0002013066021568,3.72141874023e-05,3.26922826237e-05,0.00011228059872129797,0.00010572335096022006,-0.0005172871083934805
2026-05-26 15:57:39.671321,1779825459.671321,-9597742,105973,164370060,97369,61872,10387,-0.5744732457537842,0.006343018313293458,9.838376763299562,0.022511084037780762,0.014304406860351563,0.002401407325744629,61,f252fe00,-0.0002903308618802,4.30448087616e-05,0.0001985126494462,0.00012172134103461699,-0.0002299854084842482,-0.0010367399914656785
2026-05-26 15:57:39.673182,1779825459.673182,-9662959,118701,164032030,119377,71075,27681,-0.5783768119955445,0.007104853281555177,9.818143963619997,0.02759919152069092,0.016432081031799318,0.006399668449401856,61,f252fe00,-0.0002903308618802,4.30448087616e-05,0.0001985126494462,0.00012172134103461699,-0.0002299854084842482,-0.0010367399914656785
2026-05-26 15:57:39.675076,1779825459.675076,-9662959,118701,164032030,119377,71075,27681,-0.5783768119955445,0.007104853281555177,9.818143963619997,0.02759919152069092,0.016432081031799318,0.006399668449401856,61,f252fe00,-9.81287071659e-05,-1.15204645369e-05,8.85600465723e-05,0.00025637102629665363,9.911571906680762e-05,-0.0009729756637649463
2026-05-26 15:57:39.676269,1779825459.676269,-8962180,-53924,163381136,84117,36413,29013,-0.5364316558654786,-0.003227623258056641,9.779184676235353,0.01944730721282959,0.008418450462341309,0.00670761824798584,61,f252fe00,-9.81287071659e-05,-1.15204645369e-05,8.85600465723e-05,0.00025637102629665363,9.911571906680762e-05,-0.0009729756637649463
2026-05-26 15:57:39.678555,1779825459.678555,-8962180,-53924,163381136,84117,36413,29013,-0.5364316558654786,-0.003227623258056641,9.779184676235353,0.01944730721282959,0.008418450462341309,0.00670761824798584,61,f252fe00,0.0002028696609647,-0.0001268388543414,-0.000548480802697,0.00031190112112495925,-0.00033275391509971235,-0.001481532059043657
2026-05-26 15:57:39.679763,1779825459.679763,-9562677,298883,164126857,86183,144484,30097,-0.5723744287234498,0.017889654369812016,9.823819837640688,0.01992495307159424,0.03340376779174805,0.006958232048034668,61,f252fe00,0.0002028696609647,-0.0001268388543414,-0.000548480802697,0.00031190112112495925,-0.00033275391509971235,-0.001481532059043657
2026-05-26 15:57:39.682582,1779825459.682582,-9562677,298883,164126857,86183,144484,30097,-0.5723744287234498,0.017889654369812016,9.823819837640688,0.01992495307159424,0.03340376779174805,0.006958232048034668,61,f252fe00,5.11285804605e-05,3.77470455998e-05,-7.97505038318e-05,0.0002356861457856007,0.0003677490029206037,-0.0009457585168881311
2026-05-26 15:57:39.683575,1779825459.683575,-9454403,273176,164905050,7217,-57773,20359,-0.5658936839596559,0.016350960817871095,9.870398611953737,0.001668523796081543,-0.01335674452972412,0.004706869331359863,61,f252fe00,5.11285804605e-05,3.77470455998e-05,-7.97505038318e-05,0.0002356861457856007,0.0003677490029206037,-0.0009457585168881311
2026-05-26 15:57:39.685402,1779825459.685402,-9454403,273176,164905050,7217,-57773,20359,-0.5658936839596559,0.016350960817871095,9.870398611953737,0.001668523796081543,-0.01335674452972412,0.004706869331359863,61,f252fe00,-4.85401827692e-05,0.0001028565058493,0.0004100724732495,4.0349178431192425e-05,-0.00016901447660520533,-0.0009546230098783786
2026-05-26 15:57:39.686384,1779825459.686384,-9654258,173490,164445930,26383,24029,23219,-0.577856013279419,0.010384251150512697,9.842917965298463,0.006099579231262207,0.005555349632263184,0.005368082862854004,61,f252fe00,-4.85401827692e-05,0.0001028565058493,0.0004100724732495,4.0349178431192425e-05,-0.00016901447660520533,-0.0009546230098783786
2026-05-26 15:57:39.689091,1779825459.689091,-9654258,173490,164445930,26383,24029,23219,-0.577856013279419,0.010384251150512697,9.842917965298463,0.006099579231262207,0.005555349632263184,0.005368082862854004,61,f252fe00,-4.39971468468e-05,1.48012099595e-05,0.0003635603753137,4.320084097240389e-05,4.6109017205738e-05,-0.0009390215892301849
2026-05-26 15:57:39.690669,1779825459.690669,-9153666,-52453,163233234,35677,-240586,-1212,-0.5478930583428956,-0.003139576492004395,9.770331995886842,0.008248292015075683,-0.05562192961120605,-0.0002802065734863281,61,f252fe00,-4.39971468468e-05,1.48012099595e-05,0.0003635603753137,4.320084097240389e-05,4.6109017205738e-05,-0.0009390215892301849
2026-05-26 15:57:39.692989,1779825459.692989,-9153666,-52453,163233234,35677,-240586,-1212,-0.5478930583428956,-0.003139576492004395,9.770331995886842,0.008248292015075683,-0.05562192961120605,-0.0002802065734863281,61,f252fe00,6.60882522148e-05,-5.52040255097e-05,-0.0003412262655709,6.011474387423499e-05,-0.0005455959614442568,-0.001005201369261861
2026-05-26 15:57:39.694254,1779825459.694254,-9201493,236006,163123490,132850,210249,18080,-0.550755745412903,0.0141261489251709,9.763763264212038,0.030714062118530273,0.04860821111297607,0.004179979248046875,61,f252fe00,6.60882522148e-05,-5.52040255097e-05,-0.0003412262655709,6.011474387423499e-05,-0.0005455959614442568,-0.001005201369261861
2026-05-26 15:57:39.697334,1779825459.697334,-9201493,236006,163123490,132850,210249,18080,-0.550755745412903,0.0141261489251709,9.763763264212038,0.030714062118530273,0.04860821111297607,0.004179979248046875,61,f252fe00,0.0002407606372986,1.36236580243e-05,-0.0005889975825754,0.00025924688508046614,0.00018171738850256475,-0.0009911077058674855
2026-05-26 15:57:39.698581,1779825459.698581,-9570754,587125,164292881,14660,-34263,10238,-0.5728578778936768,0.035142391242980964,9.833757211051331,0.003389297332763672,-0.0079213843460083,0.002366959487915039,61,f251fe00,0.0002407606372986,1.36236580243e-05,-0.0005889975825754,0.00025924688508046614,0.00018171738850256475,-0.0009911077058674855
2026-05-26 15:57:39.700876,1779825459.700876,-9570754,587125,164292881,14660,-34263,10238,-0.5728578778936768,0.035142391242980964,9.833757211051331,0.003389297332763672,-0.0079213843460083,0.002366959487915039,61,f251fe00,-6.20648666817e-05,0.0002400674343108,-7.5644687811e-05,0.00014404167437884413,6.686536035334351e-05,-0.0009977196146215485
2026-05-26 15:57:39.702134,1779825459.702134,-9576126,398717,164971586,-48230,168782,41624,-0.5731794191766358,0.02386522258331299,9.87438112699524,-0.011150464553833008,0.03902130848693847,0.00962320001220703,61,f251fe00,-6.20648666817e-05,0.0002400674343108,-7.5644687811e-05,0.00014404167437884413,6.686536035334351e-05,-0.0009977196146215485
2026-05-26 15:57:39.705339,1779825459.705339,-9576126,398717,164971586,-48230,168782,41624,-0.5731794191766358,0.02386522258331299,9.87438112699524,-0.011150464553833008,0.03902130848693847,0.00962320001220703,61,f251fe00,-1.53108554502e-05,0.0001829785578658,0.0005287318266877,-9.632526332647787e-05,0.00015700939553180458,-0.0009492688122166433
2026-05-26 15:57:39.707134,1779825459.707134,-9938222,115981,164028679,-77729,-138314,45823,-0.5948526902850343,0.006942047568664552,9.817943389375916,-0.017970442863464355,-0.03197730363464355,0.010593981697082519,61,f251fe00,-1.53108554502e-05,0.0001829785578658,0.0005287318266877,-9.632526332647787e-05,0.00015700939553180458,-0.0009492688122166433
2026-05-26 15:57:39.709626,1779825459.709626,-9938222,115981,164028679,-77729,-138314,45823,-0.5948526902850343,0.006942047568664552,9.817943389375916,-0.017970442863464355,-0.03197730363464355,0.010593981697082519,61,f251fe00,-0.0002807836920024,4.95550998422e-05,0.0001330865552257,-0.00016007804793299042,-9.283519362585783e-05,-0.0009069062868791407
2026-05-26 15:57:39.711269,1779825459.711269,-9264885,-272651,163736962,31272,6400,71084,-0.5545500762039185,-0.016319536921081547,9.800482656233521,0.0072298844604492185,0.001479638671875,0.016434161773681642,61,f252fe00,-0.0002807836920024,4.95550998422e-05,0.0001330865552257,-0.00016007804793299042,-9.283519362585783e-05,-0.0009069062868791407
2026-05-26 15:57:39.714978,1779825459.714978,-9264885,-272651,163736962,31272,6400,71084,-0.5545500762039185,-0.016319536921081547,9.800482656233521,0.0072298844604492185,0.001479638671875,0.016434161773681642,61,f252fe00,4.2239875851e-05,-0.000195695941885,-0.0001777941627268,-2.6637416714817227e-05,-0.00029574469452078796,-0.0008683630660323949
2026-05-26 15:57:39.716214,1779825459.716214,-9496867,-127161,163782552,105917,151558,86697,-0.5684353684420778,-0.007611226932678224,9.803211447575684,0.02448732643890381,0.03503923091125488,0.0200437865524292,61,f252fe00,4.2239875851e-05,-0.000195695941885,-0.0001777941627268,-2.6637416714817227e-05,-0.00029574469452078796,-0.0008683630660323949
2026-05-26 15:57:39.718427,1779825459.718427,-9496867,-127161,163782552,105917,151558,86697,-0.5684353684420778,-0.007611226932678224,9.803211447575684,0.02448732643890381,0.03503923091125488,0.0200437865524292,61,f252fe00,-9.5313456709e-06,-7.78600805875e-05,-8.10725787829e-05,0.00012534929595071982,0.00014791462088006524,-0.00040824589457536415
2026-05-26 15:57:39.719600,1779825459.719600,-9441948,167434,164335284,18967,-193652,59088,-0.5651481894177247,0.010021769019165041,9.836295244376222,0.00438504792022705,-0.04477109188842773,0.013660764038085938,61,f252fe00,-9.5313456709e-06,-7.78600805875e-05,-8.10725787829e-05,0.00012534929595071982,0.00014791462088006524,-0.00040824589457536415
2026-05-26 15:57:39.722440,1779825459.722440,-9441948,167434,164335284,18967,-193652,59088,-0.5651481894177247,0.010021769019165041,9.836295244376222,0.00438504792022705,-0.04477109188842773,0.013660764038085938,61,f252fe00,-7.26319339641e-05,9.7138692425e-06,6.95918217972e-05,0.00012532469996692427,-0.0002603331160582779,-0.0008608918461665265
2026-05-26 15:57:39.723741,1779825459.723741,-9275220,285964,163977710,-1275,58040,38737,-0.5551686780578614,0.01711638708862305,9.814892637765505,-0.00029477176666259765,0.013418473205566406,0.008955744255065918,61,f251fe00,-7.26319339641e-05,9.7138692425e-06,6.95918217972e-05,0.00012532469996692427,-0.0002603331160582779,-0.0008608918461665265
2026-05-26 15:57:39.725920,1779825459.725920,-9275220,285964,163977710,-1275,58040,38737,-0.5551686780578614,0.01711638708862305,9.814892637765505,-0.00029477176666259765,0.013418473205566406,0.008955744255065918,61,f251fe00,0.0003171409809898,9.98065440314e-05,0.0002428208373681,3.270953193770424e-05,-3.250890273860076e-05,-0.0013287713033152111
2026-05-26 15:57:39.727231,1779825459.727231,-8978377,12727,163651055,-59933,-118472,-16395,-0.5374011279727173,0.0007617751132202149,9.795340689183046,-0.013856122581481934,-0.027389961364746095,-0.003790418128967285,61,f251fe00,0.0003171409809898,9.98065440314e-05,0.0002428208373681,3.270953193770424e-05,-3.250890273860076e-05,-0.0013287713033152111
2026-05-26 15:57:39.730281,1779825459.730281,-8978377,12727,163651055,-59933,-118472,-16395,-0.5374011279727173,0.0007617751132202149,9.795340689183046,-0.013856122581481934,-0.027389961364746095,-0.003790418128967285,61,f251fe00,0.0002122003201974,1.90835297531e-05,-0.000248190523545,-0.00013110702877305278,-0.0003310443549771244,-0.0010265563634541356
2026-05-26 15:57:39.731365,1779825459.731365,-9482165,268255,164033636,47465,265071,1456,-0.5675553796218873,0.016056414158630374,9.818240090816651,0.01097360149383545,0.06128270349884033,0.0003366177978515625,61,f251fe00,0.0002122003201974,1.90835297531e-05,-0.000248190523545,-0.00013110702877305278,-0.0003310443549771244,-0.0010265563634541356
2026-05-26 15:57:39.733595,1779825459.733595,-9482165,268255,164033636,47465,265071,1456,-0.5675553796218873,0.016056414158630374,9.818240090816651,0.01097360149383545,0.06128270349884033,0.0003366177978515625,61,f251fe00,0.0001431961106235,2.1944068723e-06,-7.95308016986e-05,8.161131369169197e-05,0.0004230607146675715,-0.0010218801100075941
2026-05-26 15:57:39.734671,1779825459.734671,-9852458,320910,164315130,12176,36365,7514,-0.5897192825054932,0.019208081369018557,9.835088925869753,0.0028150125732421876,0.008407353172302246,0.0017371882781982422,61,f251fe00,0.0001431961106235,2.1944068723e-06,-7.95308016986e-05,8.161131369169197e-05,0.0004230607146675715,-0.0010218801100075941
2026-05-26 15:57:39.736541,1779825459.736541,-9852458,320910,164315130,12176,36365,7514,-0.5897192825054932,0.019208081369018557,9.835088925869753,0.0028150125732421876,0.008407353172302246,0.0017371882781982422,61,f251fe00,-0.0001157735815214,5.6299448628e-05,7.84325393744e-05,1.700750305195354e-05,1.475003569128666e-05,-0.0004998085449275337
2026-05-26 15:57:39.737730,1779825459.737730,-9462542,354037,164342260,1020,90874,35325,-0.5663808441424562,0.02119089932891846,9.836712793145754,0.00023581741333007813,0.021009481979370116,0.008166911888122559,61,f251fe00,-0.0001157735815214,5.6299448628e-05,7.84325393744e-05,1.700750305195354e-05,1.475003569128666e-05,-0.0004998085449275337
2026-05-26 15:57:39.739963,1779825459.739963,-9462542,354037,164342260,1020,90874,35325,-0.5663808441424562,0.02119089932891846,9.836712793145754,0.00023581741333007813,0.021009481979370116,0.008166911888122559,61,f251fe00,-6.32543032417e-05,0.0002143834303374,0.000465782618835,-7.021236421712255e-05,-0.00025073559995589473,-0.0014812698453728116
2026-05-26 15:57:39.741007,1779825459.741007,-9400662,348430,163332525,-13587,-193227,43497,-0.5626770141741945,0.02085529211120606,9.776275062812807,-0.003141226661682129,-0.04467283463287353,0.010056225517272949,61,f251fe00,-6.32543032417e-05,0.0002143834303374,0.000465782618835,-7.021236421712255e-05,-0.00025073559995589473,-0.0014812698453728116
2026-05-26 15:57:39.742861,1779825459.742861,-9400662,348430,163332525,-13587,-193227,43497,-0.5626770141741945,0.02085529211120606,9.776275062812807,-0.003141226661682129,-0.04467283463287353,0.010056225517272949,61,f251fe00,-2.68821377797e-05,0.0001680548613533,-0.0003054590145309,1.8278958840287523e-05,-0.0002914000171933872,-0.0009163846300061316
2026-05-26 15:57:39.743945,1779825459.743945,-9056190,72000,163444272,85329,226280,47186,-0.5420586283172608,0.0043095629882812505,9.782963684135744,0.019727513786315917,0.05231447479248047,0.010909098495483398,61,f251fe00,-2.68821377797e-05,0.0001680548613533,-0.0003054590145309,1.8278958840287523e-05,-0.0002914000171933872,-0.0009163846300061316
2026-05-26 15:57:39.746248,1779825459.746248,-9056190,72000,163444272,85329,226280,47186,-0.5420586283172608,0.0043095629882812505,9.782963684135744,0.019727513786315917,0.05231447479248047,0.010909098495483398,61,f251fe00,0.0002613588476307,-3.59082822675e-05,-0.0004214630043123,0.00012102352849947122,0.00011463927844622098,-0.0009230971158861432
2026-05-26 15:57:39.747491,1779825459.747491,-9842337,189747,164418601,31,85050,48618,-0.5891134896304322,0.0113573145602417,9.841282186869202,7.1669998168945315e-06,0.019663010787963866,0.01124016764831543,61,f251fe00,0.0002613588476307,-3.59082822675e-05,-0.0004214630043123,0.00012102352849947122,0.00011463927844622098,-0.0009230971158861432
2026-05-26 15:57:39.749729,1779825459.749729,-9842337,189747,164418601,31,85050,48618,-0.5891134896304322,0.0113573145602417,9.841282186869202,7.1669998168945315e-06,0.019663010787963866,0.01124016764831543,61,f251fe00,-0.0001328916332155,2.11350122055e-05,5.35485876205e-05,9.952798880856366e-05,0.0003832326837900337,-0.0009002431579613766
2026-05-26 15:57:39.750911,1779825459.750911,-9590141,26357,164961924,-93107,83383,37449,-0.5740182875833131,0.0015775993289184572,9.87380280758423,-0.021525737159729004,0.019277611152648925,0.008657966972351074,61,f251fe00,-0.0001328916332155,2.11350122055e-05,5.35485876205e-05,9.952798880856366e-05,0.0003832326837900337,-0.0009002431579613766
2026-05-26 15:57:39.752819,1779825459.752819,-9590141,26357,164961924,-93107,83383,37449,-0.5740182875833131,0.0015775993289184572,9.87380280758423,-0.021525737159729004,0.019277611152648925,0.008657966972351074,61,f251fe00,-0.0001093157895082,-4.27283882686e-05,0.0005141085770056,-0.00020100817640489286,-1.63796585471151e-05,-0.0009243760801374133
2026-05-26 15:57:39.753937,1779825459.753937,-9927581,90292,164124326,-44632,-24999,25475,-0.5942157727883912,0.005404431407470704,9.823668344530642,-0.010318630187988282,-0.005779607368469239,0.0058896554946899415,61,f251fe00,-0.0001093157895082,-4.27283882686e-05,0.0005141085770056,-0.00020100817640489286,-1.63796585471151e-05,-0.0009243760801374133
2026-05-26 15:57:39.757204,1779825459.757204,-9927581,90292,164124326,-44632,-24999,25475,-0.5942157727883912,0.005404431407470704,9.823668344530642,-0.010318630187988282,-0.005779607368469239,0.0058896554946899415,61,f251fe00,-0.0002478904694288,-2.50557212483e-05,0.0001980577514433,-0.00010998055534242992,0.00011620848642051382,-0.0009405881214342788
2026-05-26 15:57:39.758728,1779825459.758728,-9084684,-202699,163631639,3465,-111275,-12930,-0.5437641378698731,-0.012132557057800294,9.794178543697207,0.0008010856246948242,-0.02572606143951416,-0.002989332504272461,61,f251fe00,-0.0002478904694288,-2.50557212483e-05,0.0001980577514433,-0.00010998055534242992,0.00011620848642051382,-0.0009405881214342788
2026-05-26 15:57:39.760792,1779825459.760792,-9084684,-202699,163631639,3465,-111275,-12930,-0.5437641378698731,-0.012132557057800294,9.794178543697207,0.0008010856246948242,-0.02572606143951416,-0.002989332504272461,61,f251fe00,6.72329474489e-05,-0.0001496813647001,-0.0002087235840717,-5.1105343732680204e-05,-0.0004380394604429546,-0.0010242877228664243
2026-05-26 15:57:39.761898,1779825459.761898,-9379740,220448,163531697,96485,141580,-18566,-0.5614247269958497,0.013194924189453127,9.788196511139223,0.022306708946228028,0.03273238174438477,-0.004292339309692383,61,f251fe00,6.72329474489e-05,-0.0001496813647001,-0.0002087235840717,-5.1105343732680204e-05,-0.0004380394604429546,-0.0010242877228664243
2026-05-26 15:57:39.763792,1779825459.763792,-9379740,220448,163531697,96485,141580,-18566,-0.5614247269958497,0.013194924189453127,9.788196511139223,0.022306708946228028,0.03273238174438477,-0.004292339309692383,61,f251fe00,0.0001497214238471,-2.86022813756e-05,-0.0003016221017336,0.0002437799902013967,0.00027374179847348696,-0.0010522491792129363
2026-05-26 15:57:39.765041,1779825459.765041,-9258219,414487,164029251,-49871,-79962,-8261,-0.5541510824972535,0.024809136587829593,9.817977626459657,-0.011529853157043458,-0.018486698043823243,-0.0019098898544311523,61,f251fe00,0.0001497214238471,-2.86022813756e-05,-0.0003016221017336,0.0002437799902013967,0.00027374179847348696,-0.0010522491792129363
2026-05-26 15:57:39.766911,1779825459.766911,-9258219,414487,164029251,-49871,-79962,-8261,-0.5541510824972535,0.024809136587829593,9.817977626459657,-0.011529853157043458,-0.018486698043823243,-0.0019098898544311523,61,f251fe00,5.48341417001e-05,0.0001568124649793,-0.0001121959208838,-2.5864749082932234e-05,-0.00020779808097243604,-0.0010477301399537385
2026-05-26 15:57:39.767936,1779825459.767936,-9179898,385081,164252879,-80768,136085,7293,-0.5494631757916261,0.023049039237365725,9.831362889681092,-0.0186730400390625,0.03146197322845459,0.0016860945053100585,61,f251fe00,5.48341417001e-05,0.0001568124649793,-0.0001121959208838,-2.5864749082932234e-05,-0.00020779808097243604,-0.0010477301399537385
2026-05-26 15:57:39.769765,1779825459.769765,-9179898,385081,164252879,-80768,136085,7293,-0.5494631757916261,0.023049039237365725,9.831362889681092,-0.0186730400390625,0.03146197322845459,0.0016860945053100585,61,f251fe00,8.48429788842e-05,7.594594619e-05,5.97797918885e-05,-9.041203614129647e-05,0.00013002591866856033,-0.0005000640508210434
2026-05-26 15:57:39.770851,1779825459.770851,-9813515,380519,164153868,-106368,73721,57165,-0.5873883476242067,0.022775980538024907,9.82543658216675,-0.0245915947265625,0.017043819145202636,0.013216178855895997,61,f251fe00,8.48429788842e-05,7.594594619e-05,5.97797918885e-05,-9.041203614129647e-05,0.00013002591866856033,-0.0005000640508210434
2026-05-26 15:57:39.772763,1779825459.772763,-9813515,380519,164153868,-106368,73721,57165,-0.5873883476242067,0.022775980538024907,9.82543658216675,-0.0245915947265625,0.017043819145202636,0.013216178855895997,61,f251fe00,-0.0001286467485913,0.0001727820740087,9.08373732629e-05,-0.00018538079369828056,0.0003247222488831735,-0.0009035053540619037
2026-05-26 15:57:39.773843,1779825459.773843,-9329182,-252469,164194280,-34400,-3908,73503,-0.5583985758074952,-0.015111542473449709,9.827855444104005,-0.007953057861328125,-0.0009035043640136719,0.016993418952941895,61,f251fe00,-0.0001286467485913,0.0001727820740087,9.08373732629e-05,-0.00018538079369828056,0.0003247222488831735,-0.0009035053540619037
2026-05-26 15:57:39.775858,1779825459.775858,-9329182,-252469,164194280,-34400,-3908,73503,-0.5583985758074952,-0.015111542473449709,9.827855444104005,-0.007953057861328125,-0.0009035043640136719,0.016993418952941895,61,f251fe00,-8.813383312e-06,-0.0001325883854623,7.03237297349e-05,-0.00016523644411508585,-0.00018656723226145186,-0.0008524147772907985
2026-05-26 15:57:39.776926,1779825459.776926,-9811644,-156495,164018981,27915,-114626,69727,-0.5872763588415528,-0.00936701472015381,9.817362915183413,0.006453767738342285,-0.02650079100036621,0.016120432136535644,61,f250fe00,-8.813383312e-06,-0.0001325883854623,7.03237297349e-05,-0.00016523644411508585,-0.00018656723226145186,-0.0008524147772907985
2026-05-26 15:57:39.778889,1779825459.778889,-9811644,-156495,164018981,27915,-114626,69727,-0.5872763588415528,-0.00936701472015381,9.817362915183413,0.006453767738342285,-0.02650079100036621,0.016120432136535644,61,f250fe00,-0.0002064764167161,-0.0003163219424259,-1.36486007606e-05,0.000132280509437321,8.95047525968373e-05,-0.0012567546108566425
2026-05-26 15:57:39.780562,1779825459.780562,-9546495,-137506,164146239,-644,-135807,50713,-0.5714058544418336,-0.008230427337036134,9.824979948055116,-0.00014888864135742188,-0.03139770142364502,0.011724518119812012,61,f250fe00,-0.0002064764167161,-0.0003163219424259,-1.36486007606e-05,0.000132280509437321,8.95047525968373e-05,-0.0012567546108566425
2026-05-26 15:57:39.783671,1779825459.783671,-9546495,-137506,164146239,-644,-135807,50713,-0.5714058544418336,-0.008230427337036134,9.824979948055116,-0.00014888864135742188,-0.03139770142364502,0.011724518119812012,61,f250fe00,-2.44968921669e-05,-8.01063578453e-05,2.78403944924e-05,2.193626088384003e-06,-0.0001842836024732959,-0.00044985575051911336
2026-05-26 15:57:39.785142,1779825459.785142,-9708153,89781,164027939,9430,155765,33663,-0.5810819007412721,0.0053738454812622075,9.817899096645204,0.0021801551055908204,0.03601186214447021,0.007782668220520019,61,f250fe00,-2.44968921669e-05,-8.01063578453e-05,2.78403944924e-05,2.193626088384003e-06,-0.0001842836024732959,-0.00044985575051911336
2026-05-26 15:57:39.788767,1779825459.788767,-9708153,89781,164027939,9430,155765,33663,-0.5810819007412721,0.0053738454812622075,9.817899096645204,0.0021801551055908204,0.03601186214447021,0.007782668220520019,61,f250fe00,-6.68219694536e-05,-7.37582241524e-05,2.48675858785e-05,3.3015858620413716e-05,0.0002011662724143904,-0.0009265420845664772
2026-05-26 15:57:39.790909,1779825459.790909,-9172720,-295905,164040988,-31397,55692,569,-0.549033536303711,-0.01771140605621338,9.818680145081789,-0.007258783653259277,0.012875630767822265,0.00013154912567138672,61,f250fe00,-6.68219694536e-05,-7.37582241524e-05,2.48675858785e-05,3.3015858620413716e-05,0.0002011662724143904,-0.0009265420845664772
2026-05-26 15:57:39.794924,1779825459.794924,-9172720,-295905,164040988,-31397,55692,569,-0.549033536303711,-0.01771140605621338,9.818680145081789,-0.007258783653259277,0.012875630767822265,0.00013154912567138672,61,f250fe00,2.84104476219e-05,-0.0002195672282784,-8.41547843031e-05,-0.00015713820838459024,-0.00018637166941873353,-0.0014982058884009002
2026-05-26 15:57:39.797203,1779825459.797203,-9760491,-185950,164154520,67141,148940,-16162,-0.5842145939035035,-0.01113004496765137,9.82547560765381,0.015522565635681152,0.034433966217041014,-0.003736550033569336,61,f251fe00,2.84104476219e-05,-0.0002195672282784,-8.41547843031e-05,-0.00015713820838459024,-0.00018637166941873353,-0.0014982058884009002
2026-05-26 15:57:39.801727,1779825459.801727,-9760491,-185950,164154520,67141,148940,-16162,-0.5842145939035035,-0.01113004496765137,9.82547560765381,0.015522565635681152,0.034433966217041014,-0.003736550033569336,61,f251fe00,-7.07050537971e-05,-0.0002365743245884,4.32139401066e-05,0.00011658717111238145,0.00039226070806222904,-0.0010409923740528084
2026-05-26 15:57:39.804393,1779825459.804393,-9548167,-100662,164473429,48423,-89722,-25854,-0.5715059320712281,-0.0060251281878662116,9.844563919084779,0.011195084907531738,-0.020743147018432617,-0.005977277847290039,61,f251fe00,-7.07050537971e-05,-0.0002365743245884,4.32139401066e-05,0.00011658717111238145,0.00039226070806222904,-0.0010409923740528084
2026-05-26 15:57:39.808962,1779825459.808962,-9548167,-100662,164473429,48423,-89722,-25854,-0.5715059320712281,-0.0060251281878662116,9.844563919084779,0.011195084907531738,-0.020743147018432617,-0.005977277847290039,61,f251fe00,-0.0001210301455685,-0.00011283658632,0.000205262571055,9.448832086056096e-05,-0.00025242877330792504,-0.0010674321538749847
2026-05-26 15:57:39.813683,1779825459.813683,-9548167,-100662,164473429,48423,-89722,-25854,-0.5715059320712281,-0.0060251281878662116,9.844563919084779,0.011195084907531738,-0.020743147018432617,-0.005977277847290039,61,f251fe00,-0.0001334515313789,0.0001027322498741,6.78362831499e-05,0.00018638385362407795,0.00018334409476830328,-0.0010189038083361147
2026-05-26 15:57:39.816426,1779825459.816426,-9795753,431674,163999218,60378,106121,5123,-0.5863252023770142,0.02583786518615723,9.81617999999817,0.013959003707885742,0.024534489921569824,0.0011844045181274414,61,f251fe00,-0.0001334515313789,0.0001027322498741,6.78362831499e-05,0.00018638385362407795,0.00018334409476830328,-0.0010189038083361147
2026-05-26 15:57:39.821559,1779825459.821559,-9795753,431674,163999218,60378,106121,5123,-0.5863252023770142,0.02583786518615723,9.81617999999817,0.013959003707885742,0.024534489921569824,0.0011844045181274414,61,f251fe00,-5.17654953682e-05,0.000127397118628,-0.0002162644641006,7.086765144656164e-05,-0.00039684364573479064,-0.0010183556505378624
2026-05-26 15:57:39.824825,1779825459.824825,-9354889,286552,163651761,30237,-195716,-3557,-0.5599372693594361,0.017151581853027346,9.795382946842347,0.006990599143981933,-0.04524827536010742,-0.0008223554306030274,61,f251fe00,-5.17654953682e-05,0.000127397118628,-0.0002162644641006,7.086765144656164e-05,-0.00039684364573479064,-0.0010183556505378624
2026-05-26 15:57:39.826935,1779825459.826935,-9223890,-7525,163593876,55621,197358,28302,-0.5520963187774659,-0.0004504091873168946,9.791918237764895,0.012859216026306153,0.04562789515686035,0.006543239639282226,61,f251fe00,-5.17654953682e-05,0.000127397118628,-0.0002162644641006,7.086765144656164e-05,-0.00039684364573479064,-0.0010183556505378624
2026-05-26 15:57:39.830529,1779825459.830529,-9223890,-7525,163593876,55621,197358,28302,-0.5520963187774659,-0.0004504091873168946,9.791918237764895,0.012859216026306153,0.04562789515686035,0.006543239639282226,61,f251fe00,0.000192923294168,-6.58006438469e-05,-0.000265272948801,0.00012362414246661066,0.00018943680395073053,-0.0009845660328181528
2026-05-26 15:57:39.832546,1779825459.832546,-9538414,-109882,164125194,-1960,-91919,30932,-0.5709221658514405,-0.006576991670532228,9.823720298706666,-0.00045313934326171877,-0.021251079231262206,0.0071512786560058595,61,f250fe00,0.000192923294168,-6.58006438469e-05,-0.000265272948801,0.00012362414246661066,0.00018943680395073053,-0.0009845660328181528
2026-05-26 15:57:39.836408,1779825459.836408,-9538414,-109882,164125194,-1960,-91919,30932,-0.5709221658514405,-0.006576991670532228,9.823720298706666,-0.00045313934326171877,-0.021251079231262206,0.0071512786560058595,61,f250fe00,-4.20316977595e-05,-0.0001105226530129,-7.27675222067e-05,3.8516257189346536e-05,-5.912589500344145e-05,-0.000933498458320088
2026-05-26 15:57:39.838383,1779825459.838383,-9533635,-192550,164578703,19448,106511,43872,-0.5706361186080934,-0.01152508824157715,9.85086509872406,0.004496252014160157,0.024624655403137206,0.010142923095703126,61,f250fe00,-4.20316977595e-05,-0.0001105226530129,-7.27675222067e-05,3.8516257189346536e-05,-5.912589500344145e-05,-0.000933498458320088
2026-05-26 15:57:39.844502,1779825459.844502,-9533635,-192550,164578703,19448,106511,43872,-0.5706361186080934,-0.01152508824157715,9.85086509872406,0.004496252014160157,0.024624655403137206,0.010142923095703126,61,f250fe00,-1.8415977727e-06,-0.0001987096827113,0.0002857016340246,2.536744698419816e-05,5.9513077822515185e-06,-0.0009338661323559559
2026-05-26 15:57:39.846641,1779825459.846641,-9928402,-33222,164198286,-12357,-138982,48749,-0.5942649137774659,-0.0019885041888427738,9.82809522340027,-0.002856858604431152,-0.03213174092102051,0.011270454002380371,61,f250fe00,-1.8415977727e-06,-0.0001987096827113,0.0002857016340246,2.536744698419816e-05,5.9513077822515185e-06,-0.0009338661323559559
2026-05-26 15:57:39.850712,1779825459.850712,-9928402,-33222,164198286,-12357,-138982,48749,-0.5942649137774659,-0.0019885041888427738,9.82809522340027,-0.002856858604431152,-0.03213174092102051,0.011270454002380371,61,f250fe00,-0.000269389108734,-9.75024337754e-05,0.0001435896064683,5.714078680907866e-06,-0.00011180331594554264,-0.0008867012182654947
2026-05-26 15:57:39.854246,1779825459.854246,-9240802,-179508,164026020,81952,-39707,16803,-0.55310858723938,-0.010744458790283205,9.817784234820557,0.018946773193359374,-0.009180001991271973,0.0038847450942993164,61,f250fe00,-0.000269389108734,-9.75024337754e-05,0.0001435896064683,5.714078680907866e-06,-0.00011180331594554264,-0.0008867012182654947
2026-05-26 15:57:39.860368,1779825459.860368,-9240802,-179508,164026020,81952,-39707,16803,-0.55310858723938,-0.010744458790283205,9.817784234820557,0.018946773193359374,-0.009180001991271973,0.0038847450942993164,61,f250fe00,4.34686697153e-05,-0.0001783643881251,2.1420887286e-06,0.00013303491249822976,-0.00035994516450191163,-0.0009639263542539013
2026-05-26 15:57:39.863636,1779825459.863636,-9548044,65787,163795210,118051,8232,-7887,-0.5714985699011231,0.003937683615417481,9.803969092691041,0.027292628883361817,0.0019031852416992187,-0.001823423469543457,61,f250fe00,4.34686697153e-05,-0.0001783643881251,2.1420887286e-06,0.00013303491249822976,-0.00035994516450191163,-0.0009639263542539013
2026-05-26 15:57:39.869446,1779825459.869446,-9548044,65787,163795210,118051,8232,-7887,-0.5714985699011231,0.003937683615417481,9.803969092691041,0.027292628883361817,0.0019031852416992187,-0.001823423469543457,61,f250fe00,2.4151401879e-06,-9.23977752958e-05,-0.0001191664647436,0.0002881636234965891,8.762937551468778e-05,-0.001016197557802242
2026-05-26 15:57:39.872627,1779825459.872627,-9140236,118734,163871163,4506,-65715,-16925,-0.5470892051354981,0.0071068284979248055,9.808515262658387,0.0010417581024169923,-0.015192883644104004,-0.003912950706481934,61,f250fe00,2.4151401879e-06,-9.23977752958e-05,-0.0001191664647436,0.0002881636234965891,8.762937551468778e-05,-0.001016197557802242
2026-05-26 15:57:39.878392,1779825459.878392,-9140236,118734,163871163,4506,-65715,-16925,-0.5470892051354981,0.0071068284979248055,9.808515262658387,0.0010417581024169923,-0.015192883644104004,-0.003912950706481934,61,f250fe00,0.0001005408067516,1.36066640958e-05,-0.0001369117045718,6.122207051062112e-05,-0.0003199630368946638,-0.0010536270968564115
2026-05-26 15:57:39.881407,1779825459.881407,-9268552,310551,163902019,-4394,149523,-23159,-0.5547695646411134,0.018588042994079592,9.810362149819031,-0.0010158644256591798,0.03456875205230713,-0.005354211250305176,61,f250fe00,0.0001005408067516,1.36066640958e-05,-0.0001369117045718,6.122207051062112e-05,-0.0003199630368946638,-0.0010536270968564115
2026-05-26 15:57:39.885388,1779825459.885388,-9268552,310551,163902019,-4394,149523,-23159,-0.5547695646411134,0.018588042994079592,9.810362149819031,-0.0010158644256591798,0.03456875205230713,-0.005354211250305176,61,f250fe00,5.81333984052e-05,5.36522095067e-05,-4.53174399138e-05,-2.1375236768258556e-06,0.00014555808208069866,-0.0005352767896436386
2026-05-26 15:57:39.886974,1779825459.886974,-9625712,434510,163932922,-107710,-58617,10579,-0.5761473912646485,0.026007614083862308,9.812211850166628,-0.02490185646057129,-0.013551871879577636,0.002445796485900879,61,f250fe00,5.81333984052e-05,5.36522095067e-05,-4.53174399138e-05,-2.1375236768258556e-06,0.00014555808208069866,-0.0005352767896436386
2026-05-26 15:57:39.889769,1779825459.889769,-9625712,434510,163932922,-107710,-58617,10579,-0.5761473912646485,0.026007614083862308,9.812211850166628,-0.02490185646057129,-0.013551871879577636,0.002445796485900879,61,f250fe00,-7.99853559751e-05,0.0002038538505859,-9.05535193055e-05,-0.00017406845101714398,6.49616272060313e-05,-0.001008000113719052
2026-05-26 15:57:39.891308,1779825459.891308,-9454663,107697,164361549,30914,158375,45237,-0.5659092462704468,0.006446208404846192,9.837867337041322,0.007147117172241211,0.036615277290344236,0.010458502281188964,61,f251fe00,-7.99853559751e-05,0.0002038538505859,-9.05535193055e-05,-0.00017406845101714398,6.49616272060313e-05,-0.001008000113719052
2026-05-26 15:57:39.894418,1779825459.894418,-9454663,107697,164361549,30914,158375,45237,-0.5659092462704468,0.006446208404846192,9.837867337041322,0.007147117172241211,0.036615277290344236,0.010458502281188964,61,f251fe00,0.0001423647062247,2.09639468211e-05,0.0002012428784039,-0.00012697156203991794,1.9564272707246112e-05,-0.0014107046471678924
2026-05-26 15:57:39.896571,1779825459.896571,-9736815,134179,164316933,52495,-39775,68448,-0.582797465940857,0.008031289613952637,9.835196844509584,0.012136505012512207,-0.009195723152160645,0.015824735595703125,61,f250fe00,0.0001423647062247,2.09639468211e-05,0.0002012428784039,-0.00012697156203991794,1.9564272707246112e-05,-0.0014107046471678924
2026-05-26 15:57:39.900091,1779825459.900091,-9736815,134179,164316933,52495,-39775,68448,-0.582797465940857,0.008031289613952637,9.835196844509584,0.012136505012512207,-0.009195723152160645,0.015824735595703125,61,f250fe00,-8.15774227202e-05,1.1924322619e-06,7.89514225757e-05,6.361370634393126e-05,-7.327209387208033e-05,-0.00042934777072730685
2026-05-26 15:57:39.901549,1779825459.901549,-9393209,-35089,163886461,56511,89565,78620,-0.5622309145498658,-0.0021002535513305665,9.809430925083314,0.01306497827911377,0.020706849632263182,0.018176436309814453,61,f250fe00,-8.15774227202e-05,1.1924322619e-06,7.89514225757e-05,6.361370634393126e-05,-7.327209387208033e-05,-0.00042934777072730685
2026-05-26 15:57:39.904329,1779825459.904329,-9393209,-35089,163886461,56511,89565,78620,-0.5622309145498658,-0.0021002535513305665,9.809430925083314,0.01306497827911377,0.020706849632263182,0.018176436309814453,61,f250fe00,1.91769980128e-05,-0.0001553109822419,7.5299262676e-05,0.00011009488801047622,-0.000409281658261747,-0.0013055802306028898
2026-05-26 15:57:39.905786,1779825459.905786,-9586113,27224,163516849,25598,-72350,42899,-0.5737771914761354,0.001629493649902344,9.787307783482973,0.005918092300415039,-0.016726852798461915,0.00991797177886963,61,f250fe00,1.91769980128e-05,-0.0001553109822419,7.5299262676e-05,0.00011009488801047622,-0.000409281658261747,-0.0013055802306028898
2026-05-26 15:57:39.909606,1779825459.909606,-9586113,27224,163516849,25598,-72350,42899,-0.5737771914761354,0.001629493649902344,9.787307783482973,0.005918092300415039,-0.016726852798461915,0.00991797177886963,61,f250fe00,-8.98084908254e-05,-5.13041306094e-05,-0.0003028915160502,0.00012088292204958833,-2.499983240416065e-05,-0.0008841649467196326
2026-05-26 15:57:39.912627,1779825459.912627,-9011893,-365524,164233535,46171,142745,5056,-0.5394072295437623,-0.021878454190673833,9.830205053758242,0.010674437049865723,0.03300172222137451,0.00116891455078125,61,f250fe00,-8.98084908254e-05,-5.13041306094e-05,-0.0003028915160502,0.00012088292204958833,-2.499983240416065e-05,-0.0008841649467196326
2026-05-26 15:57:39.918234,1779825459.918234,-9011893,-365524,164233535,46171,142745,5056,-0.5394072295437623,-0.021878454190673833,9.830205053758242,0.010674437049865723,0.03300172222137451,0.00116891455078125,61,f250fe00,0.0002083926575977,-0.0002491067729104,-3.8473490864e-06,6.102605213780776e-05,1.4638246193816899e-05,-0.0009921199086870849
2026-05-26 15:57:39.921213,1779825459.921213,-9599335,-168980,164487597,76764,76818,-21692,-0.5745685948349,-0.01011430491333008,9.845411945312806,0.017747341094970705,0.017759825546264648,-0.005015050323486328,61,f250fe00,0.0002083926575977,-0.0002491067729104,-3.8473490864e-06,6.102605213780776e-05,1.4638246193816899e-05,-0.0009921199086870849
2026-05-26 15:57:39.926480,1779825459.926480,-9599335,-168980,164487597,76764,76818,-21692,-0.5745685948349,-0.01011430491333008,9.845411945312806,0.017747341094970705,0.017759825546264648,-0.005015050323486328,61,f250fe00,4.4224589651e-06,-0.0002128613399592,0.0002505395829333,0.00020002506893789955,0.0003315839769360886,-0.0010481320077498563
2026-05-26 15:57:39.929449,1779825459.929449,-9374010,-20107,164424555,29157,-39922,-26828,-0.5610817576080324,-0.001203505319519043,9.841638563786317,0.0067409101181030275,-0.009229708602905274,-0.006202460357666016,61,f250fe00,4.4224589651e-06,-0.0002128613399592,0.0002505395829333,0.00020002506893789955,0.0003315839769360886,-0.0010481320077498563
2026-05-26 15:57:39.934852,1779825459.934852,-9374010,-20107,164424555,29157,-39922,-26828,-0.5610817576080324,-0.001203505319519043,9.841638563786317,0.0067409101181030275,-0.009229708602905274,-0.006202460357666016,61,f250fe00,1.7665523672e-06,-0.0001174471098578,0.0002367577155566,5.966683690246699e-05,-0.00023358608879302662,-0.0010875216322756272
2026-05-26 15:57:39.937830,1779825459.937830,-9769478,512974,163920778,77345,133009,4494,-0.5847525111614991,0.03070408006042481,9.811484970542605,0.017881664543151855,0.030750821891784668,0.0010389837799072265,61,f250fe00,1.7665523672e-06,-0.0001174471098578,0.0002367577155566,5.966683690246699e-05,-0.00023358608879302662,-0.0010875216322756272
2026-05-26 15:57:39.943084,1779825459.943084,-9769478,512974,163920778,77345,133009,4494,-0.5847525111614991,0.03070408006042481,9.811484970542605,0.017881664543151855,0.030750821891784668,0.0010389837799072265,61,f250fe00,-9.56781246942e-05,0.0001261370454292,1.0194096877e-05,0.00016808411187422853,0.0002716512892553405,-0.0010145956430192284
2026-05-26 15:57:39.945947,1779825459.945947,-9106705,413830,163921183,8926,-108608,-3127,-0.5450822057388306,0.024769811825561528,9.811509211834412,0.002063633560180664,-0.02510946826171875,-0.0007229422073364258,61,f250fe00,-9.56781246942e-05,0.0001261370454292,1.0194096877e-05,0.00016808411187422853,0.0002716512892553405,-0.0010145956430192284
2026-05-26 15:57:39.951247,1779825459.951247,-9106705,413830,163921183,8926,-108608,-3127,-0.5450822057388306,0.024769811825561528,9.811509211834412,0.002063633560180664,-0.02510946826171875,-0.0007229422073364258,61,f250fe00,4.71403180154e-05,0.0002314652198734,-0.0001193338122061,3.193401761085077e-05,-0.0002877629951342328,-0.0010312261357396087
2026-05-26 15:57:39.954143,1779825459.954143,-8920460,243109,163858737,91510,249239,26701,-0.5339345035339356,0.014551299284973146,9.80777150391266,0.021156521072387694,0.05762244733428955,0.006173098777770996,61,f250fe00,4.71403180154e-05,0.0002314652198734,-0.0001193338122061,3.193401761085077e-05,-0.0002877629951342328,-0.0010312261357396087
2026-05-26 15:57:39.959310,1779825459.959310,-8920460,243109,163858737,91510,249239,26701,-0.5339345035339356,0.014551299284973146,9.80777150391266,0.021156521072387694,0.05762244733428955,0.006173098777770996,61,f250fe00,0.0003656244874645,9.31910942671e-05,-8.08369841238e-05,0.00018890273313920108,0.0003817315053292921,-0.0009709910031251061
2026-05-26 15:57:39.962014,1779825459.962014,-8840080,10314,163800979,8130,-48956,32554,-0.5291233552978516,0.0006173448980712891,9.804314396425477,0.001879603500366211,-0.011318311065673829,0.00752627458190918,61,f250fe00,0.0003656244874645,9.31910942671e-05,-8.08369841238e-05,0.00018890273313920108,0.0003817315053292921,-0.0009709910031251061
2026-05-26 15:57:39.966877,1779825459.966877,-8840080,10314,163800979,8130,-48956,32554,-0.5291233552978516,0.0006173448980712891,9.804314396425477,0.001879603500366211,-0.011318311065673829,0.00752627458190918,61,f250fe00,0.0003104442817945,-4.9756808491e-06,-0.0001874790690456,6.885950951804581e-05,-1.8053183938761545e-05,-0.0009446911404215597
2026-05-26 15:57:39.969181,1779825459.969181,-9243145,8093,164322667,97794,359613,90472,-0.5532488276016236,0.00048440685089111337,9.835540053317567,0.022609341293334962,0.08314020339202881,0.020916542175292967,61,f250fe00,0.0003104442817945,-4.9756808491e-06,-0.0001874790690456,6.885950951804581e-05,-1.8053183938761545e-05,-0.0009446911404215597
2026-05-26 15:57:39.971784,1779825459.971784,-9243145,8093,164322667,97794,359613,90472,-0.5532488276016236,0.00048440685089111337,9.835540053317567,0.022609341293334962,0.08314020339202881,0.020916542175292967,61,f250fe00,0.0002816711450714,-0.0001114320322277,0.0001112151931623,0.00018508976418656016,0.0005262827162663429,-0.0008550097693616747
2026-05-26 15:57:39.973909,1779825459.973909,-9863069,112272,164369928,78996,219134,95954,-0.5903544043508911,0.006720045219726563,9.838368862434084,0.01826336508178711,0.05066236573791504,0.0221839451751709,61,f250fe00,0.0002816711450714,-0.0001114320322277,0.0001112151931623,0.00018508976418656016,0.0005262827162663429,-0.0008550097693616747
2026-05-26 15:57:39.977679,1779825459.977679,-9863069,112272,164369928,78996,219134,95954,-0.5903544043508911,0.006720045219726563,9.838368862434084,0.01826336508178711,0.05066236573791504,0.0221839451751709,61,f250fe00,-0.000118515727989,-6.0441337129e-06,9.48645578295e-05,9.424527902790118e-05,0.0002260270469188898,-0.0003975411659239511
2026-05-26 15:57:39.979732,1779825459.979732,-9638618,-207250,164595759,9333,-60341,72029,-0.576919880430298,-0.012404957351684572,9.851885986311952,0.002157729331970215,-0.013950449546813964,0.016652639671325683,61,f250fe00,-0.000118515727989,-6.0441337129e-06,9.48645578295e-05,9.424527902790118e-05,0.0002260270469188898,-0.0003975411659239511
2026-05-26 15:57:39.982310,1779825459.982310,-9638618,-207250,164595759,9333,-60341,72029,-0.576919880430298,-0.012404957351684572,9.851885986311952,0.002157729331970215,-0.013950449546813964,0.016652639671325683,61,f250fe00,-0.0002032374361732,-0.000113567473632,0.0002852929711366,1.4223067298963132e-05,-0.0001848703670214912,-0.0008365915779956491
2026-05-26 15:57:39.983596,1779825459.983596,-9662607,-201406,163472189,35536,-68868,44090,-0.5783557430209352,-0.012055164489135744,9.784634657329407,0.008215693725585938,-0.015921836883544923,0.010193323287963867,61,f250fe00,-0.0002032374361732,-0.000113567473632,0.0002852929711366,1.4223067298963132e-05,-0.0001848703670214912,-0.0008365915779956491
2026-05-26 15:57:39.985983,1779825459.985983,-9662607,-201406,163472189,35536,-68868,44090,-0.5783557430209352,-0.012055164489135744,9.784634657329407,0.008215693725585938,-0.015921836883544923,0.010193323287963867,61,f250fe00,-0.0001762486926789,-0.0002771238329503,-0.0001495560186251,0.00021909012214887976,0.00013870118563190085,-0.0013122274472737426
2026-05-26 15:57:39.987257,1779825459.987257,-9276786,-148852,163415657,53253,-101416,13982,-0.5552624110528566,-0.008909542637939454,9.78125093212311,0.012311749717712402,-0.02344672430419922,0.003232548110961914,61,f250fe00,-0.0001762486926789,-0.0002771238329503,-0.0001495560186251,0.00021909012214887976,0.00013870118563190085,-0.0013122274472737426
2026-05-26 15:57:39.989642,1779825459.989642,-9276786,-148852,163415657,53253,-101416,13982,-0.5552624110528566,-0.008909542637939454,9.78125093212311,0.012311749717712402,-0.02344672430419922,0.003232548110961914,61,f250fe00,5.63000089419e-05,-8.43298591832e-05,-0.0001909529690227,6.449297652074417e-05,-0.00014453153027223605,-0.0004923288633401975
2026-05-26 15:57:39.990941,1779825459.990941,-9567774,309400,163640366,89860,317914,19959,-0.5726795098699952,0.018519149841308598,9.794700898644411,0.02077505172729492,0.07349966386413574,0.004614391914367676,61,f250fe00,5.63000089419e-05,-8.43298591832e-05,-0.0001909529690227,6.449297652074417e-05,-0.00014453153027223605,-0.0004923288633401975
2026-05-26 15:57:39.993322,1779825459.993322,-9567774,309400,163640366,89860,317914,19959,-0.5726795098699952,0.018519149841308598,9.794700898644411,0.02077505172729492,0.07349966386413574,0.004614391914367676,61,f250fe00,5.36266096707e-05,1.89580898804e-05,-0.0002907474599102,0.0001744622632558454,0.00048685469096322685,-0.0009761631681419199
2026-05-26 15:57:39.994626,1779825459.994626,-9704731,523272,164763179,-35737,-29320,13222,-0.5808770767892457,0.03132046727783203,9.861906917360535,-0.008262163627624513,-0.006778594665527344,0.003056841018676758,61,f250fe00,5.36266096707e-05,1.89580898804e-05,-0.0002907474599102,0.0001744622632558454,0.00048685469096322685,-0.0009761631681419199
2026-05-26 15:57:39.996979,1779825459.996979,-9704731,523272,164763179,-35737,-29320,13222,-0.5808770767892457,0.03132046727783203,9.861906917360535,-0.008262163627624513,-0.006778594665527344,0.003056841018676758,61,f250fe00,-0.000374682792694,0.0004336604231025,0.0003534838497761,2.25968292027867e-05,6.163591074688236e-06,-0.0014672524463737347
2026-05-26 15:57:39.998268,1779825459.998268,-9676747,508369,164548942,-9733,87852,32204,-0.5792020933078004,0.030428447594299322,9.849083752833863,-0.0022502067489624023,0.020310815093994142,0.007445356842041015,61,f250fe00,-0.000374682792694,0.0004336604231025,0.0003534838497761,2.25968292027867e-05,6.163591074688236e-06,-0.0014672524463737347
2026-05-26 15:57:40.000673,1779825460.000673,-9676747,508369,164548942,-9733,87852,32204,-0.5792020933078004,0.030428447594299322,9.849083752833863,-0.0022502067489624023,0.020310815093994142,0.007445356842041015,61,f250fe00,-6.25520631838e-05,0.0001122879725426,0.0001484988214573,-8.303462480457103e-06,7.426326766236705e-05,-0.0004712579619512906
2026-05-26 15:57:40.006420,1779825460.006420,-9149788,125312,163375167,43713,-186301,61162,-0.5476609404919435,0.007500554960937501,9.778827401492617,0.01010616332244873,-0.04307158815765381,0.01414025944519043,61,f250fe00,-6.25520631838e-05,0.0001122879725426,0.0001484988214573,-8.303462480457103e-06,7.426326766236705e-05,-0.0004712579619512906
2026-05-26 15:57:40.015515,1779825460.015515,-9149788,125312,163375167,43713,-186301,61162,-0.5476609404919435,0.007500554960937501,9.778827401492617,0.01010616332244873,-0.04307158815765381,0.01414025944519043,61,f250fe00,-2.29866315458e-05,0.000130331229635,-0.0003614046952457,0.00014225706520757376,-0.0004917503192466721,-0.0013381467100307513
2026-05-26 15:57:40.020844,1779825460.020844,-9149788,125312,163375167,43713,-186301,61162,-0.5476609404919435,0.007500554960937501,9.778827401492617,0.01010616332244873,-0.04307158815765381,0.01414025944519043,61,f250fe00,0.0002025000759922,-1.73721874711e-05,-0.0002310055160455,0.0003220488724387796,0.0002541607475738359,-0.0008517300845781583
2026-05-26 15:57:40.022108,1779825460.022108,-9274866,216306,163798847,152170,212196,79852,-0.555147489373169,0.012947004607543947,9.804186785476992,0.03518072135925293,0.049058344940185544,0.018461266754150392,61,f250fe00,0.0002025000759922,-1.73721874711e-05,-0.0002310055160455,0.0003220488724387796,0.0002541607475738359,-0.0008517300845781583
2026-05-26 15:57:40.455025,1779825460.455025,-9657365,291785,164432373,-43597,-105466,71260,-0.5780419828933716,0.017464803285217288,9.842106510500795,-0.010079344871520996,-0.024383058151245116,0.016474851837158203,61,f24ffe00,0.0002025000759922,-1.73721874711e-05,-0.0002310055160455,0.0003220488724387796,0.0002541607475738359,-0.0008517300845781583
2026-05-26 15:57:40.468058,1779825460.468058,-9657365,291785,164432373,-43597,-105466,71260,-0.5780419828933716,0.017464803285217288,9.842106510500795,-0.010079344871520996,-0.024383058151245116,0.016474851837158203,61,f24ffe00,-0.0001187718211563,0.0001170305676853,0.0001356371316663,3.201865499364315e-05,-7.340124921611763e-05,-0.0008413946222467032
2026-05-26 15:57:40.603299,1779825460.603299,-9422848,17941,164299046,-86551,113286,36700,-0.5640049581250001,0.0010738592996215822,9.834126217382204,-0.02001003229522705,0.026190991653442384,0.008484803009033204,61,f24ffe00,-0.0001187718211563,0.0001170305676853,0.0001356371316663,3.201865499364315e-05,-7.340124921611763e-05,-0.0008413946222467032
2026-05-26 15:57:40.610427,1779825460.610427,-9422848,17941,164299046,-86551,113286,36700,-0.5640049581250001,0.0010738592996215822,9.834126217382204,-0.02001003229522705,0.026190991653442384,0.008484803009033204,61,f24ffe00,2.4642564595e-05,-1.983176379e-05,0.0002271853291273,-0.00019506864738586124,1.3353464868210572e-05,-0.00091019470890234
2026-05-26 15:57:40.655870,1779825460.655870,-9751629,-121808,163497111,-85544,-76979,20070,-0.5836841585256959,-0.0072908228955078135,9.786126364673768,-0.01977722039794922,-0.017797047706604004,0.0046400543975830075,61,f250fe00,2.4642564595e-05,-1.983176379e-05,0.0002271853291273,-0.00019506864738586124,1.3353464868210572e-05,-0.00091019470890234
2026-05-26 15:57:40.662416,1779825460.662416,-9751629,-121808,163497111,-85544,-76979,20070,-0.5836841585256959,-0.0072908228955078135,9.786126364673768,-0.01977722039794922,-0.017797047706604004,0.0046400543975830075,61,f250fe00,-0.000143378748608,-0.0001233341966353,-0.0002304444685985,-0.00019729554994052435,-2.8066954532478533e-05,-0.0009564671672694942
2026-05-26 15:57:40.666166,1779825460.666166,-9360841,-240844,164107731,59031,111932,-15481,-0.5602935265664674,-0.014415727615966798,9.822675050116883,0.013647586006164551,0.025877955596923827,-0.0035791072311401368,61,f24ffe00,-0.000143378748608,-0.0001233341966353,-0.0002304444685985,-0.00019729554994052435,-2.8066954532478533e-05,-0.0009564671672694942
2026-05-26 15:57:40.671926,1779825460.671926,-9360841,-240844,164107731,59031,111932,-15481,-0.5602935265664674,-0.014415727615966798,9.822675050116883,0.013647586006164551,0.025877955596923827,-0.0035791072311401368,61,f24ffe00,5.41953649052e-05,-0.0002586735526393,-9.21012964653e-05,4.6711738559772754e-05,-5.280796594370437e-05,-0.001041835470768409
2026-05-26 15:57:40.675373,1779825460.675373,-10085786,198714,164652980,41833,14857,-15671,-0.6036851396295166,0.011894034717407229,9.855310951641847,0.009671519462585449,0.0034348424606323244,-0.0036230340042114257,61,f250fe00,5.41953649052e-05,-0.0002586735526393,-9.21012964653e-05,4.6711738559772754e-05,-5.280796594370437e-05,-0.001041835470768409
2026-05-26 15:57:40.679326,1779825460.679326,-10085786,198714,164652980,41833,14857,-15671,-0.6036851396295166,0.011894034717407229,9.855310951641847,0.009671519462585449,0.0034348424606323244,-0.0036230340042114257,61,f250fe00,-0.0002699152885042,-1.27754980914e-05,0.0003078158211672,0.00014299239335183745,0.00020626209667782061,-0.0010482138488121296
2026-05-26 15:57:40.682008,1779825460.682008,-9575693,367359,164551410,-99076,-121911,-34224,-0.5731535019436647,0.0219882881918335,9.849231475076296,-0.022905731414794923,-0.028185035957336426,-0.007912367797851563,61,f24ffe00,-0.0002699152885042,-1.27754980914e-05,0.0003078158211672,0.00014299239335183745,0.00020626209667782061,-0.0010482138488121296
2026-05-26 15:57:40.685535,1779825460.685535,-9575693,367359,164551410,-99076,-121911,-34224,-0.5731535019436647,0.0219882881918335,9.849231475076296,-0.022905731414794923,-0.028185035957336426,-0.007912367797851563,61,f24ffe00,-0.0001821597447923,0.0001642010737505,0.0003471567791893,-0.0001553513236827886,-0.00042247756827336797,-0.0010959789164316752
2026-05-26 15:57:40.687653,1779825460.687653,-9508396,402521,164035523,-45032,66438,-23422,-0.5691254372155763,0.02409291116119385,9.81835303727997,-0.01041110760498047,0.015360036575317383,-0.005415015151977539,61,f24ffe00,-0.0001821597447923,0.0001642010737505,0.0003471567791893,-0.0001553513236827886,-0.00042247756827336797,-0.0010959789164316752
2026-05-26 15:57:40.693596,1779825460.693596,-9508396,402521,164035523,-45032,66438,-23422,-0.5691254372155763,0.02409291116119385,9.81835303727997,-0.01041110760498047,0.015360036575317383,-0.005415015151977539,61,f24ffe00,-1.12143749325e-05,8.12925165191e-05,-5.1788895196e-06,-4.913847758059315e-05,4.957766669584061e-05,-0.0005351736909189744
2026-05-26 15:57:40.695947,1779825460.695947,-9484267,300500,163179955,-50032,-92232,-20932,-0.5676811949191285,0.01798643997192383,9.767142979130556,-0.011567075317382812,-0.021323442810058595,-0.004839343231201172,61,f24ffe00,-1.12143749325e-05,8.12925165191e-05,-5.1788895196e-06,-4.913847758059315e-05,4.957766669584061e-05,-0.0005351736909189744
2026-05-26 15:57:40.699248,1779825460.699248,-9484267,300500,163179955,-50032,-92232,-20932,-0.5676811949191285,0.01798643997192383,9.767142979130556,-0.011567075317382812,-0.021323442810058595,-0.004839343231201172,61,f24ffe00,-5.40741950027e-05,0.0001555833185772,-0.0004517266281929,-7.879955447526598e-05,-0.00012723950766075994,-0.0010629306311731729
2026-05-26 15:57:40.701256,1779825460.701256,-9411089,111704,164377870,46794,241824,35087,-0.5633011226919556,0.006686047556152344,9.838844231173708,0.010818470626831054,0.05590814721679688,0.008111887825012208,61,f24ffe00,-5.40741950027e-05,0.0001555833185772,-0.0004517266281929,-7.879955447526598e-05,-0.00012723950766075994,-0.0010629306311731729
2026-05-26 15:57:40.703922,1779825460.703922,-9411089,111704,164377870,46794,241824,35087,-0.5633011226919556,0.006686047556152344,9.838844231173708,0.010818470626831054,0.05590814721679688,0.008111887825012208,61,f24ffe00,0.0002582938093524,-5.81267025484e-05,-0.0001354939847574,8.15621155648046e-05,0.0003408930348467443,-0.0014631404743307582
2026-05-26 15:57:40.705678,1779825460.705678,-9646747,131825,164950123,-121197,-142242,45095,-0.5774064420626832,0.007890390846252442,9.873096458239443,-0.02801996376800537,-0.032885431869506834,0.010425672798156739,61,f24ffe00,0.0002582938093524,-5.81267025484e-05,-0.0001354939847574,8.15621155648046e-05,0.0003408930348467443,-0.0014631404743307582
2026-05-26 15:57:40.708402,1779825460.708402,-9646747,131825,164950123,-121197,-142242,45095,-0.5774064420626832,0.007890390846252442,9.873096458239443,-0.02801996376800537,-0.032885431869506834,0.010425672798156739,61,f24ffe00,-0.0001310593062063,2.39274739968e-05,0.0004766561306016,-0.00017819781095410392,-0.0001796534529007987,-0.0009319989897659423
2026-05-26 15:57:40.711072,1779825460.711072,-9595000,14517,164495189,-71877,53762,42326,-0.5743091232299805,0.0008689156375122071,9.845866364787904,-0.01661749825286865,0.01242942723083496,0.00978549787902832,61,f24ffe00,-0.0001310593062063,2.39274739968e-05,0.0004766561306016,-0.00017819781095410392,-0.0001796534529007987,-0.0009319989897659423
2026-05-26 15:57:40.714381,1779825460.714381,-9595000,14517,164495189,-71877,53762,42326,-0.5743091232299805,0.0008689156375122071,9.845866364787904,-0.01661749825286865,0.01242942723083496,0.00978549787902832,61,f24ffe00,-3.92268092501e-05,-6.0632013683e-05,0.0003803547922125,-0.0002086404381542216,-7.045600461306131e-05,-0.0009122648651355357
2026-05-26 15:57:40.717412,1779825460.717412,-9712354,-154368,163770565,-52395,-185374,-5564,-0.58133335177063,-0.009239703046875,9.802493965193177,-0.012113385658264161,-0.04285727174377441,-0.0012863608703613282,61,f24ffe00,-3.92268092501e-05,-6.0632013683e-05,0.0003803547922125,-0.0002086404381542216,-7.045600461306131e-05,-0.0009122648651355357
2026-05-26 15:57:40.722734,1779825460.722734,-9712354,-154368,163770565,-52395,-185374,-5564,-0.58133335177063,-0.009239703046875,9.802493965193177,-0.012113385658264161,-0.04285727174377441,-0.0012863608703613282,61,f24ffe00,-0.0001882968037594,-0.0001168378872003,-9.7071622885e-05,-0.00012668220366273943,-0.00028950208150233626,-0.0010026054838752976
2026-05-26 15:57:40.725782,1779825460.725782,-9413148,-305087,163739409,21432,-126695,-24318,-0.5634243642224122,-0.018260995047302248,9.800629121520082,0.004954940002441406,-0.02929106586456299,-0.005622164566040039,61,f24ffe00,-0.0001882968037594,-0.0001168378872003,-9.7071622885e-05,-0.00012668220366273943,-0.00028950208150233626,-0.0010026054838752976
2026-05-26 15:57:40.728885,1779825460.728885,-9413148,-305087,163739409,21432,-126695,-24318,-0.5634243642224122,-0.018260995047302248,9.800629121520082,0.004954940002441406,-0.02929106586456299,-0.005622164566040039,61,f24ffe00,1.68242152827e-05,-0.0001297982868185,-9.38909370037e-05,2.7679787143158217e-05,-0.00017368595812691353,-0.0005362098715123672
2026-05-26 15:57:40.731205,1779825460.731205,-9798546,86538,163886271,58088,-6766,-40678,-0.5864923775079347,0.0051797355816650395,9.809419552625428,0.013429570495605468,-0.0015642555084228516,-0.009404490921020508,61,f24ffe00,1.68242152827e-05,-0.0001297982868185,-9.38909370037e-05,2.7679787143158217e-05,-0.00017368595812691353,-0.0005362098715123672
2026-05-26 15:57:40.734833,1779825460.734833,-9798546,86538,163886271,58088,-6766,-40678,-0.5864923775079347,0.0051797355816650395,9.809419552625428,0.013429570495605468,-0.0015642555084228516,-0.009404490921020508,61,f24ffe00,-0.0001377824443529,-0.0002084503544822,-0.0002014199861325,0.0003136250465886261,0.00021611558629321793,-0.0016560731381388878
2026-05-26 15:57:40.737084,1779825460.737084,-9241344,134465,164244691,12877,48316,-19707,-0.5531410286718751,0.008048408155822756,9.830872796601259,0.002977079246520996,0.011170347198486329,-0.004556131141662598,61,f24ffe00,-0.0001377824443529,-0.0002084503544822,-0.0002014199861325,0.0003136250465886261,0.00021611558629321793,-0.0016560731381388878
2026-05-26 15:57:40.740507,1779825460.740507,-9241344,134465,164244691,12877,48316,-19707,-0.5531410286718751,0.008048408155822756,9.830872796601259,0.002977079246520996,0.011170347198486329,-0.004556131141662598,61,f24ffe00,5.96889284214e-05,-3.8377158395e-06,6.75360968137e-05,2.33655685271663e-05,-0.00013596332192249882,-0.0010878660200347348
2026-05-26 15:57:40.743967,1779825460.743967,-9241344,134465,164244691,12877,48316,-19707,-0.5531410286718751,0.008048408155822756,9.830872796601259,0.002977079246520996,0.011170347198486329,-0.004556131141662598,61,f24ffe00,-3.33185160425e-05,7.37328661216e-05,8.61327229803e-05,0.000128028975028263,0.00028214092645648976,-0.0009890413630465687
2026-05-26 15:57:40.746116,1779825460.746116,-9658368,299695,164145638,47636,87700,20943,-0.5781020175000001,0.017938256663513185,9.824943975175172,0.011013135589599609,0.02027567367553711,0.004841886360168457,61,f24ffe00,-3.33185160425e-05,7.37328661216e-05,8.61327229803e-05,0.000128028975028263,0.00028214092645648976,-0.0009890413630465687
2026-05-26 15:57:40.748228,1779825460.748228,-9168865,9242,164288444,8477,-88596,38196,-0.5488027951187134,0.0005531802935791017,9.833491634232178,0.0019598276596069337,-0.02048282308959961,0.008830668548583984,61,f24ffe00,-3.33185160425e-05,7.37328661216e-05,8.61327229803e-05,0.000128028975028263,0.00028214092645648976,-0.0009890413630465687
2026-05-26 15:57:40.752346,1779825460.752346,-9168865,9242,164288444,8477,-88596,38196,-0.5488027951187134,0.0005531802935791017,9.833491634232178,0.0019598276596069337,-0.02048282308959961,0.008830668548583984,61,f24ffe00,6.89739024438e-05,-7.1535316347e-06,0.0001029250743753,2.8852190921791332e-06,-0.00028731175975895963,-0.0009349498777454496
2026-05-26 15:57:40.756658,1779825460.756658,-9496302,154544,163951767,73638,120608,58534,-0.568401550343628,0.009250237534179688,9.813339818423769,0.01702463008117676,0.027883790771484375,0.013532682815551757,61,f24ffe00,6.89739024438e-05,-7.1535316347e-06,0.0001029250743753,2.8852190921791332e-06,-0.00028731175975895963,-0.0009349498777454496
2026-05-26 15:57:40.762049,1779825460.762049,-9496302,154544,163951767,73638,120608,58534,-0.568401550343628,0.009250237534179688,9.813339818423769,0.01702463008117676,0.027883790771484375,0.013532682815551757,61,f24ffe00,6.78153688215e-05,-2.27813515997e-05,1.74008642754e-05,0.00017150172355590728,0.0002130135085483995,-0.0008774159117530078
2026-05-26 15:57:40.765263,1779825460.765263,-9224368,121452,163635976,-10153,-178274,37759,-0.5521249294873047,0.007269514500732423,9.794438135012209,-0.0023473080368041992,-0.04121579759216309,0.00872963697052002,61,f24ffe00,6.78153688215e-05,-2.27813515997e-05,1.74008642754e-05,0.00017150172355590728,0.0002130135085483995,-0.0008774159117530078
2026-05-26 15:57:40.770113,1779825460.770113,-9224368,121452,163635976,-10153,-178274,37759,-0.5521249294873047,0.007269514500732423,9.794438135012209,-0.0023473080368041992,-0.04121579759216309,0.00872963697052002,61,f24ffe00,2.37320382315e-05,2.44273443334e-05,-0.0002392015711919,1.3605770981510504e-05,-0.00036600051628032736,-0.0009206192012777379
2026-05-26 15:57:40.772621,1779825460.772621,-9111471,43124,163675600,79864,239338,52775,-0.5453674748666383,0.0025811888098144537,9.796809831176759,0.018464041076660158,0.05533340007019043,0.012201239204406739,61,f24ffe00,2.37320382315e-05,2.44273443334e-05,-0.0002392015711919,1.3605770981510504e-05,-0.00036600051628032736,-0.0009206192012777379
2026-05-26 15:57:40.776252,1779825460.776252,-9111471,43124,163675600,79864,239338,52775,-0.5453674748666383,0.0025811888098144537,9.796809831176759,0.018464041076660158,0.05533340007019043,0.012201239204406739,61,f24ffe00,0.0002736653140619,-5.5117320176e-05,-0.0002236753641535,0.00013149901915493473,0.00027828460195937867,-0.0009074853659319004
2026-05-26 15:57:40.780049,1779825460.780049,-9272158,-134800,164140812,3082,-70298,22331,-0.5549854019207765,-0.008068459594726563,9.824655114744875,0.0007125384979248047,-0.016252443649291994,0.005162782997131347,61,f24ffe00,0.0002736653140619,-5.5117320176e-05,-0.0002236753641535,0.00013149901915493473,0.00027828460195937867,-0.0009074853659319004
2026-05-26 15:57:40.785356,1779825460.785356,-9272158,-134800,164140812,3082,-70298,22331,-0.5549854019207765,-0.008068459594726563,9.824655114744875,0.0007125384979248047,-0.016252443649291994,0.005162782997131347,61,f24ffe00,8.88248389006e-05,-0.0001295870009137,-4.58203696562e-05,8.354792979214001e-05,-3.836213485415263e-05,-0.0009442998974803103
2026-05-26 15:57:40.789635,1779825460.789635,-9335257,-326959,164515756,54820,210639,29107,-0.5587621951846314,-0.019570144515075688,9.847097403426515,0.012674029998779297,0.04869837659454346,0.006729350440979004,61,f24ffe00,8.88248389006e-05,-0.0001295870009137,-4.58203696562e-05,8.354792979214001e-05,-3.836213485415263e-05,-0.0009442998974803103
2026-05-26 15:57:40.796001,1779825460.796001,-9335257,-326959,164515756,54820,210639,29107,-0.5587621951846314,-0.019570144515075688,9.847097403426515,0.012674029998779297,0.04869837659454346,0.006729350440979004,61,f24ffe00,0.0001613530860971,-0.0002787343048826,0.0002737934915417,7.622654257229e-05,0.00022125939364631687,-0.0009500237610542292
2026-05-26 15:57:40.799897,1779825460.799897,-9899091,-407,164234789,23113,136625,31474,-0.592510502655945,-2.4361001892089847e-05,9.830280111980287,0.005343576347351074,0.03158681774139404,0.007276585556030273,61,f24ffe00,0.0001613530860971,-0.0002787343048826,0.0002737934915417,7.622654257229e-05,0.00022125939364631687,-0.0009500237610542292
2026-05-26 15:57:40.806274,1779825460.806274,-9899091,-407,164234789,23113,136625,31474,-0.592510502655945,-2.4361001892089847e-05,9.830280111980287,0.005343576347351074,0.03158681774139404,0.007276585556030273,61,f24ffe00,-0.0001276851426634,-3.90711023329e-05,5.45073099389e-05,2.962495308598294e-05,0.00013071232084088934,-0.00047169491704106953
2026-05-26 15:57:40.809741,1779825460.809741,-9676766,57097,163991616,-43581,-161312,-5508,-0.5792032305535889,0.0034175433047485358,9.815724981972657,-0.010075645774841309,-0.03729429272460937,-0.001273414031982422,61,f24ffe00,-0.0001276851426634,-3.90711023329e-05,5.45073099389e-05,2.962495308598294e-05,0.00013071232084088934,-0.00047169491704106953
2026-05-26 15:57:40.816288,1779825460.816288,-9676766,57097,163991616,-43581,-161312,-5508,-0.5792032305535889,0.0034175433047485358,9.815724981972657,-0.010075645774841309,-0.03729429272460937,-0.001273414031982422,61,f24ffe00,-0.0002236501355286,-4.95858423598e-05,-2.38534428857e-05,-9.385664580627612e-05,-0.0003907494766845493,-0.0010216997823762088
2026-05-26 15:57:40.819882,1779825460.819882,-9737661,200397,163809472,66177,155561,5686,-0.5828481033059694,0.011994770752258303,9.80482274529297,0.01529969506072998,0.0359646986618042,0.0013145664825439452,61,f24ffe00,-0.0002236501355286,-4.95858423598e-05,-2.38534428857e-05,-9.385664580627612e-05,-0.0003907494766845493,-0.0010216997823762088
2026-05-26 15:57:40.823591,1779825460.823591,-9737661,200397,163809472,66177,155561,5686,-0.5828481033059694,0.011994770752258303,9.80482274529297,0.01529969506072998,0.0359646986618042,0.0013145664825439452,61,f24ffe00,-9.34276591054e-05,3.80847470782e-05,-0.000108892027558,0.00010527905521538407,0.00020242166325110114,-0.000997986592144252
2026-05-26 15:57:40.825508,1779825460.825508,-9273623,84096,163980564,31583,-163134,-20121,-0.5550730895565796,0.005033569570312501,9.815063464053956,0.007301785652160645,-0.03771552735900879,-0.004651845268249512,61,f24ffe00,-9.34276591054e-05,3.80847470782e-05,-0.000108892027558,0.00010527905521538407,0.00020242166325110114,-0.000997986592144252
2026-05-26 15:57:40.828914,1779825460.828914,-9273623,84096,163980564,31583,-163134,-20121,-0.5550730895565796,0.005033569570312501,9.815063464053956,0.007301785652160645,-0.03771552735900879,-0.004651845268249512,61,f24ffe00,-1.64730990429e-05,2.75778010132e-05,-9.15995964013e-05,0.00011896735333029088,-0.0002890040638022344,-0.0010427266779192777
2026-05-26 15:57:40.830971,1779825460.830971,-9305192,98465,163681467,83656,137978,40684,-0.5569626533618165,0.00589362666168213,9.797161000705263,0.019340726989746093,0.03189962260437012,0.00940587808227539,61,f24ffe00,-1.64730990429e-05,2.75778010132e-05,-9.15995964013e-05,0.00011896735333029088,-0.0002890040638022344,-0.0010427266779192777
2026-05-26 15:57:40.834203,1779825460.834203,-9305192,98465,163681467,83656,137978,40684,-0.5569626533618165,0.00589362666168213,9.797161000705263,0.019340726989746093,0.03189962260437012,0.00940587808227539,61,f24ffe00,0.0003829060570359,-0.0001453079151562,-0.0001850446131228,0.00032803243423266563,0.0003390745984649734,-0.0014420527261205618
2026-05-26 15:57:40.836639,1779825460.836639,-9341803,123000,163820317,21638,-43434,40993,-0.559154006286316,0.00736217010498047,9.80547187321808,0.005002565872192383,-0.01004166032409668,0.009477316886901855,61,f24ffe00,0.0003829060570359,-0.0001453079151562,-0.0001850446131228,0.00032803243423266563,0.0003390745984649734,-0.0014420527261205618
2026-05-26 15:57:40.843918,1779825460.843918,-9341803,123000,163820317,21638,-43434,40993,-0.559154006286316,0.00736217010498047,9.80547187321808,0.005002565872192383,-0.01004166032409668,0.009477316886901855,61,f24ffe00,3.84730546156e-05,-2.3607525256e-06,-6.96356976558e-05,2.792134366867777e-05,-7.743782628714282e-05,-0.00046068756296846686
2026-05-26 15:57:40.848216,1779825460.848216,-9690374,249035,164426192,72839,240205,106474,-0.5800177379583741,0.014906000260925294,9.841736546489258,0.016839906440734864,0.05553384487152099,0.024616101242065428,61,f24ffe00,3.84730546156e-05,-2.3607525256e-06,-6.96356976558e-05,2.792134366867777e-05,-7.743782628714282e-05,-0.00046068756296846686
2026-05-26 15:57:40.854313,1779825460.854313,-9690374,249035,164426192,72839,240205,106474,-0.5800177379583741,0.014906000260925294,9.841736546489258,0.016839906440734864,0.05553384487152099,0.024616101242065428,61,f24ffe00,9.8994967343e-05,3.5934384457e-05,0.0002298764378309,0.00019139784488102153,0.00045780138493401465,-0.0012176755850384676
2026-05-26 15:57:40.858545,1779825460.858545,-9630557,-30208,164551180,18075,-152894,72036,-0.5764373889407349,-0.0018081010937500003,9.849217708416749,0.0041788232803344726,-0.03534810548400879,0.016654258026123046,61,f24ffe00,9.8994967343e-05,3.5934384457e-05,0.0002298764378309,0.00019139784488102153,0.00045780138493401465,-0.0012176755850384676
2026-05-26 15:57:40.864661,1779825460.864661,-9630557,-30208,164551180,18075,-152894,72036,-0.5764373889407349,-0.0018081010937500003,9.849217708416749,0.0041788232803344726,-0.03534810548400879,0.016654258026123046,61,f24ffe00,-0.0001578828031735,-3.81224815449e-05,0.0002769997935973,6.945869206128431e-05,-0.00022364475834196776,-0.0008214276494190095
2026-05-26 15:57:40.868596,1779825460.868596,-9468543,-281379,164104195,118749,98068,92990,-0.5667400342465211,-0.016841951723327638,9.822463402690126,0.027454001976013182,0.02267268832397461,0.02149868751525879,61,f24ffe00,-0.0001578828031735,-3.81224815449e-05,0.0002769997935973,6.945869206128431e-05,-0.00022364475834196776,-0.0008214276494190095
2026-05-26 15:57:40.874827,1779825460.874827,-9468543,-281379,164104195,118749,98068,92990,-0.5667400342465211,-0.016841951723327638,9.822463402690126,0.027454001976013182,0.02267268832397461,0.02149868751525879,61,f24ffe00,5.22201145416e-05,-0.0002543820221957,0.0001406567696878,0.00021319257654353133,9.955070087848093e-06,-0.0008119270265989721
2026-05-26 15:57:40.878564,1779825460.878564,-9697161,-84523,163415434,60985,-136106,36707,-0.5804239741250611,-0.005059127673034669,9.781237584448855,0.014099338188171386,-0.03146682829284668,0.008486421363830566,61,f24ffe00,5.22201145416e-05,-0.0002543820221957,0.0001406567696878,0.00021319257654353133,9.955070087848093e-06,-0.0008119270265989721
2026-05-26 15:57:40.885838,1779825460.885838,-9697161,-84523,163415434,60985,-136106,36707,-0.5804239741250611,-0.005059127673034669,9.781237584448855,0.014099338188171386,-0.03146682829284668,0.008486421363830566,61,f24ffe00,-0.0001368733646692,-0.0001301363724558,-0.0003219385952299,0.00018953325217664974,-0.00019093726182537154,-0.0009014048421293812
2026-05-26 15:57:40.891913,1779825460.891913,-9500894,153716,163977357,78676,183394,33019,-0.568676404694214,0.009200677559814454,9.814871508935854,0.01818938314819336,0.04239950852966309,0.0076337795791625975,61,f24ffe00,-0.0001368733646692,-0.0001301363724558,-0.0003219385952299,0.00018953325217664974,-0.00019093726182537154,-0.0009014048421293812
2026-05-26 15:57:40.896627,1779825460.896627,-9500894,153716,163977357,78676,183394,33019,-0.568676404694214,0.009200677559814454,9.814871508935854,0.01818938314819336,0.04239950852966309,0.0076337795791625975,61,f24ffe00,-9.024365917e-07,-3.2223722937e-05,-0.0001539923912823,0.00017567821238840707,9.51463623840649e-05,-0.0009478238312956424
2026-05-26 15:57:40.899673,1779825460.899673,-9955062,360452,164511238,-32557,34207,8632,-0.5958606491839601,0.02157486942016602,9.846826978349,-0.0075269681625366215,0.007908437507629394,0.001995662658691406,61,f24ffe00,-9.024365917e-07,-3.2223722937e-05,-0.0001539923912823,0.00017567821238840707,9.51463623840649e-05,-0.0009478238312956424
2026-05-26 15:57:40.903534,1779825460.903534,-9955062,360452,164511238,-32557,34207,8632,-0.5958606491839601,0.02157486942016602,9.846826978349,-0.0075269681625366215,0.007908437507629394,0.001995662658691406,61,f24ffe00,-0.0002562095870243,0.0001369482658937,0.0002102924107652,3.19613360494465e-05,0.00025412125657812767,-0.0009816503527800295
2026-05-26 15:57:40.906211,1779825460.906211,-9445077,16264,164575880,-25336,34759,22702,-0.5653354758425904,0.0009734823950195314,9.850696127941896,-0.005857519592285156,0.008036056343078614,0.005248555801391602,61,f24efe00,-0.0002562095870243,0.0001369482658937,0.0002102924107652,3.19613360494465e-05,0.00025412125657812767,-0.0009816503527800295
2026-05-26 15:57:40.910138,1779825460.910138,-9445077,16264,164575880,-25336,34759,22702,-0.5653354758425904,0.0009734823950195314,9.850696127941896,-0.005857519592285156,0.008036056343078614,0.005248555801391602,61,f24efe00,-5.24054158683e-05,-2.32150145642e-05,0.0003302387118189,-0.00010418649806731682,-0.00012187710096340348,-0.0009750164406131686
2026-05-26 15:57:40.912666,1779825460.912666,-9775543,150314,163957958,21103,-26865,15043,-0.5851155319882203,0.008997050708618165,9.81371038098572,0.004878877326965332,-0.006211014518737793,0.0034778444595336914,61,f24efe00,-5.24054158683e-05,-2.32150145642e-05,0.0003302387118189,-0.00010418649806731682,-0.00012187710096340348,-0.0009750164406131686
2026-05-26 15:57:40.916964,1779825460.916964,-9775543,150314,163957958,21103,-26865,15043,-0.5851155319882203,0.008997050708618165,9.81371038098572,0.004878877326965332,-0.006211014518737793,0.0034778444595336914,61,f24efe00,-0.0001222707183738,-2.26500217138e-05,3.70686779764e-05,3.976255861213616e-05,6.794478878660019e-05,-0.0009786381399932529
2026-05-26 15:57:40.920167,1779825460.920167,-9193142,108303,163836566,64097,-111346,40129,-0.5502558959613038,0.006482480559997559,9.806444457787476,0.014818812492370605,-0.025742476181030274,0.00927756566619873,61,f24ffe00,-0.0001222707183738,-2.26500217138e-05,3.70686779764e-05,3.976255861213616e-05,6.794478878660019e-05,-0.0009786381399932529
2026-05-26 15:57:40.924018,1779825460.924018,-9193142,108303,163836566,64097,-111346,40129,-0.5502558959613038,0.006482480559997559,9.806444457787476,0.014818812492370605,-0.025742476181030274,0.00927756566619873,61,f24ffe00,5.82896228746e-05,-2.04301951248e-05,-0.0001301806946489,0.00010873456594099638,-0.00039994112282331983,-0.0009440564596994367
2026-05-26 15:57:40.926909,1779825460.926909,-9442698,364686,163777431,116468,96608,52903,-0.5651930806988527,0.021828295665893557,9.802904929908143,0.026926649505615234,0.022335145751953125,0.012230831977844239,61,f24efe00,5.82896228746e-05,-2.04301951248e-05,-0.0001301806946489,0.00010873456594099638,-0.00039994112282331983,-0.0009440564596994367
2026-05-26 15:57:40.930623,1779825460.930623,-9442698,364686,163777431,116468,96608,52903,-0.5651930806988527,0.021828295665893557,9.802904929908143,0.026926649505615234,0.022335145751953125,0.012230831977844239,61,f24efe00,9.6246745698e-05,0.000102661776159,-0.0001531814962593,0.0002601381807189368,0.00016757582814553665,-0.0008950539339512719
2026-05-26 15:57:40.933186,1779825460.933186,-9102760,201910,164086436,27237,-122492,51221,-0.5448460776000977,0.012085331430053713,9.821400437008059,0.006297018516540527,-0.028319359405517577,0.01184196443939209,61,f24efe00,9.6246745698e-05,0.000102661776159,-0.0001531814962593,0.0002601381807189368,0.00016757582814553665,-0.0008950539339512719
2026-05-26 15:57:40.936770,1779825460.936770,-9102760,201910,164086436,27237,-122492,51221,-0.5448460776000977,0.012085331430053713,9.821400437008059,0.006297018516540527,-0.028319359405517577,0.01184196443939209,61,f24efe00,0.0001224983003743,0.0001137177811532,-4.4451176395e-05,0.0001236100545001299,-0.00030559311505252106,-0.0009057326737985967
2026-05-26 15:57:40.938954,1779825460.938954,-9023452,95497,164239728,37201,99243,43665,-0.540099093968506,0.005715976898498536,9.830575736030275,0.008600630973815918,0.02294434073638916,0.010095066032409668,61,f24efe00,0.0001224983003743,0.0001137177811532,-4.4451176395e-05,0.0001236100545001299,-0.00030559311505252106,-0.0009057326737985967
2026-05-26 15:57:40.942419,1779825460.942419,-9023452,95497,164239728,37201,99243,43665,-0.540099093968506,0.005715976898498536,9.830575736030275,0.008600630973815918,0.02294434073638916,0.010095066032409668,61,f24efe00,0.0001334651645352,-1.13066103524e-05,5.59866651291e-05,4.591100074574651e-05,8.749611220649886e-05,-0.000457597472388807
2026-05-26 15:57:40.944625,1779825460.944625,-9900082,129796,164156832,39475,66197,7213,-0.5925698190020753,0.0077689449670410166,9.825613992509767,0.009126365089416505,0.01530431893157959,0.001667599021911621,61,f24efe00,0.0001334651645352,-1.13066103524e-05,5.59866651291e-05,4.591100074574651e-05,8.749611220649886e-05,-0.000457597472388807
2026-05-26 15:57:40.948482,1779825460.948482,-9900082,129796,164156832,39475,66197,7213,-0.5925698190020753,0.0077689449670410166,9.825613992509767,0.009126365089416505,0.01530431893157959,0.001667599021911621,61,f24efe00,-0.000124717112825,-1.08388114421e-05,7.20058795987e-05,0.00011830338639186125,0.00029274402357918304,-0.0009683763832390422
2026-05-26 15:57:40.950913,1779825460.950913,-9666858,27653,164271739,-58998,-49908,-5573,-0.5786101868023682,0.0016551714627075199,9.832491755763856,-0.013639956619262695,-0.011538407318115234,-0.0012884416122436522,61,f24efe00,-0.000124717112825,-1.08388114421e-05,7.20058795987e-05,0.00011830338639186125,0.00029274402357918304,-0.0009683763832390422
2026-05-26 15:57:40.954767,1779825460.954767,-9666858,27653,164271739,-58998,-49908,-5573,-0.5786101868023682,0.0016551714627075199,9.832491755763856,-0.013639956619262695,-0.011538407318115234,-0.0012884416122436522,61,f24efe00,-0.000181266016815,-4.535011756e-06,0.0001123060136049,-9.91388516361803e-05,-0.00025850386106450105,-0.0010269070465125326
2026-05-26 15:57:40.957626,1779825460.957626,-10006074,338833,163773767,-11005,-167650,19429,-0.5989139745611574,0.02028086327789307,9.802685621036073,-0.0025442849349975585,-0.03875959739685059,0.004491859336853027,61,f24efe00,-0.000181266016815,-4.535011756e-06,0.0001123060136049,-9.91388516361803e-05,-0.00025850386106450105,-0.0010269070465125326
2026-05-26 15:57:40.961840,1779825460.961840,-10006074,338833,163773767,-11005,-167650,19429,-0.5989139745611574,0.02028086327789307,9.802685621036073,-0.0025442849349975585,-0.03875959739685059,0.004491859336853027,61,f24efe00,-0.0004378915248493,0.0001455166946152,-0.0001092507015371,4.590365636073415e-05,-5.949420899878905e-05,-0.0014722414980899295
2026-05-26 15:57:40.964698,1779825460.964698,-9257788,184125,163876897,64943,16978,5916,-0.5541252849743653,0.011020809516906739,9.80885847146637,0.015014402229309082,0.003925203964233398,0.0013677409973144531,61,f24efe00,-0.0004378915248493,0.0001455166946152,-0.0001092507015371,4.590365636073415e-05,-5.949420899878905e-05,-0.0014722414980899295
2026-05-26 15:57:40.968908,1779825460.968908,-9257788,184125,163876897,64943,16978,5916,-0.5541252849743653,0.011020809516906739,9.80885847146637,0.015014402229309082,0.003925203964233398,0.0013677409973144531,61,f24efe00,6.01299734586e-05,5.39565638e-05,-0.0001078566556957,8.831266816484853e-05,-0.0002889548181771458,-0.0009982365737792364
2026-05-26 15:57:40.971424,1779825460.971424,-9707887,320348,163671179,94837,-19973,-17680,-0.581065979300232,0.01917444283569336,9.79654521203827,0.021925701988220216,-0.004617628623962402,-0.004087501831054687,61,f24efe00,6.01299734586e-05,5.39565638e-05,-0.0001078566556957,8.831266816484853e-05,-0.0002889548181771458,-0.0009982365737792364
2026-05-26 15:57:40.975394,1779825460.975394,-9707887,320348,163671179,94837,-19973,-17680,-0.581065979300232,0.01917444283569336,9.79654521203827,0.021925701988220216,-0.004617628623962402,-0.004087501831054687,61,f24efe00,-6.91886459717e-05,8.01119113871e-05,-0.000208624807984,0.00024617482813539564,8.668464442276715e-05,-0.0010267484639186275
2026-05-26 15:57:40.977769,1779825460.977769,-9254439,163907,164069596,459,2329,-40679,-0.5539248304403688,0.009810660287780763,9.820392478109133,0.00010611783599853516,0.0005384497604370117,-0.009404722114562988,61,f24efe00,-6.91886459717e-05,8.01119113871e-05,-0.000208624807984,0.00024617482813539564,8.668464442276715e-05,-0.0010267484639186275
2026-05-26 15:57:40.981691,1779825460.981691,-9254439,163907,164069596,459,2329,-40679,-0.5539248304403688,0.009810660287780763,9.820392478109133,0.00010611783599853516,0.0005384497604370117,-0.009404722114562988,61,f24efe00,6.42643346557e-05,5.5770859037e-05,-6.44130291849e-05,2.6387480068479053e-05,-0.00022056727871234784,-0.001097355888986997
2026-05-26 15:57:40.985465,1779825460.985465,-9254439,163907,164069596,459,2329,-40679,-0.5539248304403688,0.009810660287780763,9.820392478109133,0.00010611783599853516,0.0005384497604370117,-0.009404722114562988,61,f24efe00,-6.31813886797e-05,0.0001198237285214,5.18561377793e-05,8.823659632920601e-05,0.0003187350298309262,-0.0010985723384950605
2026-05-26 15:57:40.987930,1779825460.987930,-9755410,398562,164120502,25966,122454,-34368,-0.5839104704376221,0.023855945051879886,9.82343945885193,0.006003171524047852,0.02831057405090332,-0.00794565966796875,61,f24efe00,-6.31813886797e-05,0.0001198237285214,5.18561377793e-05,8.823659632920601e-05,0.0003187350298309262,-0.0010985723384950605
2026-05-26 15:57:40.992334,1779825460.992334,-9293348,112106,164294790,-5844,-155851,-30014,-0.5562537302502443,0.006710109282836915,9.833871474325562,-0.0013510950622558594,-0.036031744789123535,-0.006939042984008789,61,f24efe00,-6.31813886797e-05,0.0001198237285214,5.18561377793e-05,8.823659632920601e-05,0.0003187350298309262,-0.0010985723384950605
2026-05-26 15:57:40.999539,1779825460.999539,-9293348,112106,164294790,-5844,-155851,-30014,-0.5562537302502443,0.006710109282836915,9.833871474325562,-0.0013510950622558594,-0.036031744789123535,-0.006939042984008789,61,f24efe00,-2.1861719589e-05,5.22160455136e-05,0.0001054724590201,-3.070754395978984e-05,-0.0003720775689899322,-0.0010900535612826865
2026-05-26 15:57:41.003318,1779825461.003318,-9468504,96745,163989609,92778,105433,-10562,-0.5667376998999024,0.005790675990295411,9.81560485290436,0.02144967448425293,0.024375428764343263,-0.002441866195678711,61,f24efe00,-2.1861719589e-05,5.22160455136e-05,0.0001054724590201,-3.070754395978984e-05,-0.0003720775689899322,-0.0010900535612826865
2026-05-26 15:57:41.007337,1779825461.007337,-9468504,96745,163989609,92778,105433,-10562,-0.5667376998999024,0.005790675990295411,9.81560485290436,0.02144967448425293,0.024375428764343263,-0.002441866195678711,61,f24efe00,8.18043116623e-05,-2.97362154012e-05,3.87895115264e-05,0.00016921064343138344,0.00012918404548141303,-0.0010445328448625026
2026-05-26 15:57:41.010010,1779825461.010010,-9426065,256286,163579618,-13625,-203079,-13643,-0.5641975117935182,0.01534000916687012,9.791064824583131,-0.0031500120162963868,-0.04695055341339111,-0.0031541735000610352,61,f24efe00,8.18043116623e-05,-2.97362154012e-05,3.87895115264e-05,0.00016921064343138344,0.00012918404548141303,-0.0010445328448625026
2026-05-26 15:57:41.014714,1779825461.014714,-9426065,256286,163579618,-13625,-203079,-13643,-0.5641975117935182,0.01534000916687012,9.791064824583131,-0.0031500120162963868,-0.04695055341339111,-0.0031541735000610352,61,f24efe00,-4.73317908936e-05,6.47989535434e-05,-0.0002621025360465,6.899450114196459e-05,-0.00039658089788966323,-0.0010564280847183906
2026-05-26 15:57:41.017658,1779825461.017658,-9477905,447530,163643416,16561,247796,-989,-0.5673003971450806,0.026786926724243168,9.794883456520997,0.003828796257019043,0.05728883505249024,-0.0002286504135131836,61,f24efe00,-4.73317908936e-05,6.47989535434e-05,-0.0002621025360465,6.899450114196459e-05,-0.00039658089788966323,-0.0010564280847183906
2026-05-26 15:57:41.024583,1779825461.024583,-9477905,447530,163643416,16561,247796,-989,-0.5673003971450806,0.026786926724243168,9.794883456520997,0.003828796257019043,0.05728883505249024,-0.0002286504135131836,61,f24efe00,6.85835286625e-05,0.0001218649180737,-0.0002585409045985,2.8443534452426605e-05,0.00024234840577276161,-0.001023518433559857
2026-05-26 15:57:41.028769,1779825461.028769,-9782011,500384,164086244,-118043,-61163,13734,-0.5855026743966676,0.029950505087890628,9.82138894484009,-0.027290779335021973,-0.01414049063873291,0.0031752121124267577,61,f24efe00,6.85835286625e-05,0.0001218649180737,-0.0002585409045985,2.8443534452426605e-05,0.00024234840577276161,-0.001023518433559857
2026-05-26 15:57:41.034723,1779825461.034723,-9782011,500384,164086244,-118043,-61163,13734,-0.5855026743966676,0.029950505087890628,9.82138894484009,-0.027290779335021973,-0.01414049063873291,0.0031752121124267577,61,f24efe00,-0.0002044492938681,0.0002483338023172,-8.06682888929e-05,-0.0001768283298735196,5.7840230331613634e-05,-0.0009879551452983523
2026-05-26 15:57:41.037298,1779825461.037298,-9446759,53425,164663186,-82986,168937,46937,-0.5654361520223999,0.0031977555923461917,9.855921832195436,-0.01918582731628418,0.03905714348602295,0.010851531303405762,61,f24efe00,-0.0002044492938681,0.0002483338023172,-8.06682888929e-05,-0.0001768283298735196,5.7840230331613634e-05,-0.0009879551452983523
2026-05-26 15:57:41.042512,1779825461.042512,-9446759,53425,164663186,-82986,168937,46937,-0.5654361520223999,0.0031977555923461917,9.855921832195436,-0.01918582731628418,0.03905714348602295,0.010851531303405762,61,f24efe00,1.95580414197e-05,-4.9157270594e-06,0.0003285642278548,-0.00024120880847458738,0.0001063658090114543,-0.0009299102298968063
2026-05-26 15:57:41.045273,1779825461.045273,-9803828,272,164491470,-35297,142670,37595,-0.5868085318371583,1.62805712890625e-05,9.845643763888551,-0.008160438468933105,0.03298438270568848,0.008691721229553223,61,f24efe00,1.95580414197e-05,-4.9157270594e-06,0.0003285642278548,-0.00024120880847458738,0.0001063658090114543,-0.0009299102298968063
2026-05-26 15:57:41.049330,1779825461.049330,-9803828,272,164491470,-35297,142670,37595,-0.5868085318371583,1.62805712890625e-05,9.845643763888551,-0.008160438468933105,0.03298438270568848,0.008691721229553223,61,f24efe00,-9.95078865574e-05,-3.9481117097e-05,0.0001313780280014,-3.7876641742162125e-05,0.00013769620770696594,-0.0004646163612179402
2026-05-26 15:57:41.052510,1779825461.052510,-9515144,-159412,164065563,-75773,-246322,21078,-0.5695293390356446,-0.009541611876220704,9.820151082726747,-0.017518228294372558,-0.05694805577087402,0.00487309748840332,61,f24efe00,-9.95078865574e-05,-3.9481117097e-05,0.0001313780280014,-3.7876641742162125e-05,0.00013769620770696594,-0.0004646163612179402
2026-05-26 15:57:41.056834,1779825461.056834,-9515144,-159412,164065563,-75773,-246322,21078,-0.5695293390356446,-0.009541611876220704,9.820151082726747,-0.017518228294372558,-0.05694805577087402,0.00487309748840332,61,f24efe00,-0.0001301381773289,-0.0001440977591792,4.76052495618e-05,-0.00014376642319660995,-0.0004991137634880932,-0.0009463547526120265
2026-05-26 15:57:41.059778,1779825461.059778,-9430889,91419,163736742,34552,137919,26780,-0.564486252513733,0.005471888039245606,9.80046948812439,0.007988199279785156,0.031885982185363766,0.006191363067626953,61,f24efe00,-0.0001301381773289,-0.0001440977591792,4.76052495618e-05,-0.00014376642319660995,-0.0004991137634880932,-0.0009463547526120265
2026-05-26 15:57:41.065736,1779825461.065736,-9430889,91419,163736742,34552,137919,26780,-0.564486252513733,0.005471888039245606,9.80046948812439,0.007988199279785156,0.031885982185363766,0.006191363067626953,61,f24efe00,8.41937641939e-05,-0.0001078579498696,-0.0001337788240767,1.5247830207138606e-05,5.7052495158764714e-05,-0.0009494282682847069
2026-05-26 15:57:41.069101,1779825461.069101,-8890891,97619,164159338,-70643,-57580,28071,-0.5321646498117066,0.005842989296569825,9.825763989243775,-0.016332205421447754,-0.01331212417602539,0.006489833930969238,61,f24efe00,8.41937641939e-05,-0.0001078579498696,-0.0001337788240767,1.5247830207138606e-05,5.7052495158764714e-05,-0.0009494282682847069
