sys_datetime,unix_timestamp,raw_accel_x_lsb,raw_accel_y_lsb,raw_accel_z_lsb,raw_gyro_x_lsb,raw_gyro_y_lsb,raw_gyro_z_lsb,imu_type,imu_status_hex,veh_lat_acc_ms2,veh_long_acc_ms2,veh_vert_acc_ms2,veh_pitch_rate_degs,veh_roll_rate_degs,veh_yaw_rate_degs
2026-05-25 08:38:37.141416,1779712717.141416,1527048,-1508129,163650908,88674,-125459,91169,61,0ca9fe00,,,,,,
2026-05-25 08:38:37.144719,1779712717.144719,2769053,-1933067,164836883,39597,52515,104392,61,0ca8fe00,,,,,,
2026-05-25 08:38:37.147823,1779712717.147823,2769053,-1933067,164836883,39597,52515,104392,61,0ca8fe00,0.0,0.0,0.0,0.0,0.0,0.0
2026-05-25 08:38:37.149449,1779712717.149449,2304804,-1646285,164491228,157360,165968,107996,61,0ca8fe00,0.0,0.0,0.0,0.0,0.0,0.0
2026-05-25 08:38:37.151959,1779712717.151959,2304804,-1646285,164491228,157360,165968,107996,61,0ca8fe00,0.0,0.0,0.0,0.0,0.0,0.0
2026-05-25 08:38:37.153759,1779712717.153759,1914969,-1636129,164250735,197579,214376,143597,61,0ca8fe00,0.0,0.0,0.0,0.0,0.0,0.0
2026-05-25 08:38:37.155349,1779712717.155349,1914969,-1636129,164250735,197579,214376,143597,61,0ca8fe00,0.0,0.0,0.0,0.0,0.0,0.0
2026-05-25 08:38:37.156101,1779712717.156101,1626692,-1423388,163924992,194111,120831,89362,61,0ca8fe00,0.0,0.0,0.0,0.0,0.0,0.0
2026-05-25 08:38:37.157138,1779712717.157138,1626692,-1423388,163924992,194111,120831,89362,61,0ca8fe00,0.0,0.0,0.0,0.0,0.0,0.0
2026-05-25 08:38:37.157978,1779712717.157978,1511793,-1631104,163922105,107479,-11866,55172,61,0ca8fe00,0.0,0.0,0.0,0.0,0.0,0.0
2026-05-25 08:38:37.158696,1779712717.158696,1511793,-1631104,163922105,107479,-11866,55172,61,0ca8fe00,0.0,0.0,0.0,0.0,0.0,0.0
2026-05-25 08:38:37.159259,1779712717.159259,1555424,-1531430,163889590,50840,-160834,45089,61,0ca8fe00,0.0,0.0,0.0,0.0,0.0,0.0
2026-05-25 08:38:37.160011,1779712717.160011,1555424,-1531430,163889590,50840,-160834,45089,61,0ca8fe00,0.0,0.0,0.0,0.0,0.0,0.0
2026-05-25 08:38:37.160658,1779712717.160658,1899379,-1748903,164129381,20577,-204201,101210,61,0ca8fe00,0.0,0.0,0.0,0.0,0.0,0.0
2026-05-25 08:38:37.161411,1779712717.161411,1899379,-1748903,164129381,20577,-204201,101210,61,0ca8fe00,0.0,0.0,0.0,0.0,0.0,0.0
2026-05-25 08:38:37.161996,1779712717.161996,2290116,-1566911,164368493,-5012,-251848,55026,61,0ca8fe00,0.0,0.0,0.0,0.0,0.0,0.0
2026-05-25 08:38:37.162741,1779712717.162741,2290116,-1566911,164368493,-5012,-251848,55026,61,0ca8fe00,0.0,0.0,0.0,0.0,0.0,0.0
2026-05-25 08:38:37.163332,1779712717.163332,2671250,-1736829,164533365,-24851,-187606,70031,61,0ca8fe00,0.0,0.0,0.0,0.0,0.0,0.0
2026-05-25 08:38:37.164071,1779712717.164071,2671250,-1736829,164533365,-24851,-187606,70031,61,0ca8fe00,0.0,0.0,0.0,0.0,0.0,0.0
2026-05-25 08:38:37.164661,1779712717.164661,2859402,-1663990,164826405,30255,-75059,57751,61,0ca8fe00,0.0,0.0,0.0,0.0,0.0,0.0
2026-05-25 08:38:37.165441,1779712717.165441,2859402,-1663990,164826405,30255,-75059,57751,61,0ca8fe00,0.0,0.0,0.0,0.0,0.0,0.0
2026-05-25 08:38:37.166127,1779712717.166127,2958968,-1848053,164797582,112335,80417,69109,61,0ca8fe00,0.0,0.0,0.0,0.0,0.0,0.0
2026-05-25 08:38:37.167010,1779712717.167010,2958968,-1848053,164797582,112335,80417,69109,61,0ca8fe00,0.0,0.0,0.0,0.0,0.0,0.0
2026-05-25 08:38:37.167609,1779712717.167609,2760962,-1729708,164673549,182771,217210,62830,61,0ca8fe00,0.0,0.0,0.0,0.0,0.0,0.0
2026-05-25 08:38:37.168354,1779712717.168354,2760962,-1729708,164673549,182771,217210,62830,61,0ca8fe00,0.0,0.0,0.0,0.0,0.0,0.0
2026-05-25 08:38:37.168947,1779712717.168947,2415364,-1819695,164377961,224919,282601,108388,61,0ca8fe00,0.0,0.0,0.0,0.0,0.0,0.0
2026-05-25 08:38:37.169690,1779712717.169690,2415364,-1819695,164377961,224919,282601,108388,61,0ca8fe00,0.0,0.0,0.0,0.0,0.0,0.0
2026-05-25 08:38:37.170222,1779712717.170222,1980067,-1712161,164203395,227584,312749,118818,61,0ca8fe00,0.0,0.0,0.0,0.0,0.0,0.0
2026-05-25 08:38:37.170883,1779712717.170883,1980067,-1712161,164203395,227584,312749,118818,61,0ca8fe00,0.0,0.0,0.0,0.0,0.0,0.0
2026-05-25 08:38:37.171503,1779712717.171503,1627971,-1744874,164139518,214144,234432,102534,61,0ca7fe00,0.0,0.0,0.0,0.0,0.0,0.0
2026-05-25 08:38:37.172385,1779712717.172385,1627971,-1744874,164139518,214144,234432,102534,61,0ca7fe00,0.0,0.0,0.0,0.0,0.0,0.0
2026-05-25 08:38:37.173035,1779712717.173035,1604732,-1683940,164096916,209926,156208,103920,61,0ca7fe00,0.0,0.0,0.0,0.0,0.0,0.0
2026-05-25 08:38:37.173809,1779712717.173809,1604732,-1683940,164096916,209926,156208,103920,61,0ca7fe00,0.0,0.0,0.0,0.0,0.0,0.0
2026-05-25 08:38:37.174399,1779712717.174399,1855382,-1723077,164255629,212368,82831,106914,61,0ca7fe00,0.0,0.0,0.0,0.0,0.0,0.0
2026-05-25 08:38:37.175146,1779712717.175146,1855382,-1723077,164255629,212368,82831,106914,61,0ca7fe00,0.0,0.0,0.0,0.0,0.0,0.0
2026-05-25 08:38:37.175736,1779712717.175736,2229376,-1754982,164429130,231810,74241,108080,61,0ca7fe00,0.0,0.0,0.0,0.0,0.0,0.0
2026-05-25 08:38:37.176494,1779712717.176494,2229376,-1754982,164429130,231810,74241,108080,61,0ca7fe00,0.0,0.0,0.0,0.0,0.0,0.0
2026-05-25 08:38:37.177073,1779712717.177073,2520591,-1743084,164592284,261594,120689,120578,61,0ca7fe00,0.0,0.0,0.0,0.0,0.0,0.0
2026-05-25 08:38:37.177704,1779712717.177704,2520591,-1743084,164592284,261594,120689,120578,61,0ca7fe00,0.0,0.0,0.0,0.0,0.0,0.0
2026-05-25 08:38:37.178323,1779712717.178323,2618331,-1714249,164578768,303800,247295,154096,61,0ca8fe00,0.0,0.0,0.0,0.0,0.0,0.0
2026-05-25 08:38:37.179110,1779712717.179110,2618331,-1714249,164578768,303800,247295,154096,61,0ca8fe00,0.0,0.0,0.0,0.0,0.0,0.0
2026-05-25 08:38:37.179729,1779712717.179729,2594020,-1666383,164606950,330044,341540,164744,61,0ca7fe00,0.0,0.0,0.0,0.0,0.0,0.0
2026-05-25 08:38:37.180479,1779712717.180479,2594020,-1666383,164606950,330044,341540,164744,61,0ca7fe00,0.0,0.0,0.0,0.0,0.0,0.0
2026-05-25 08:38:37.181080,1779712717.181080,2450542,-1659855,164470833,343696,420069,160173,61,0ca7fe00,0.0,0.0,0.0,0.0,0.0,0.0
2026-05-25 08:38:37.181830,1779712717.181830,2450542,-1659855,164470833,343696,420069,160173,61,0ca7fe00,0.0,0.0,0.0,0.0,0.0,0.0
2026-05-25 08:38:37.182425,1779712717.182425,2163645,-1559115,164192983,322408,415527,159491,61,0ca7fe00,0.0,0.0,0.0,0.0,0.0,0.0
2026-05-25 08:38:37.183175,1779712717.183175,2163645,-1559115,164192983,322408,415527,159491,61,0ca7fe00,0.0,0.0,0.0,0.0,0.0,0.0
2026-05-25 08:38:37.183778,1779712717.183778,1850478,-1542546,163978085,270851,389789,131535,61,0ca7fe00,0.0,0.0,0.0,0.0,0.0,0.0
2026-05-25 08:38:37.184506,1779712717.184506,1850478,-1542546,163978085,270851,389789,131535,61,0ca7fe00,0.0,0.0,0.0,0.0,0.0,0.0
2026-05-25 08:38:37.185066,1779712717.185066,1583495,-1487138,163847456,213488,247309,105124,61,0ca7fe00,0.0,0.0,0.0,0.0,0.0,0.0
2026-05-25 08:38:37.185858,1779712717.185858,1583495,-1487138,163847456,213488,247309,105124,61,0ca7fe00,0.0,0.0,0.0,0.0,0.0,0.0
2026-05-25 08:38:37.186472,1779712717.186472,1502712,-1550457,163946242,172992,104046,83442,61,0ca7fe00,0.0,0.0,0.0,0.0,0.0,0.0
2026-05-25 08:38:37.187228,1779712717.187228,1502712,-1550457,163946242,172992,104046,83442,61,0ca7fe00,0.0,0.0,0.0,0.0,0.0,0.0
2026-05-25 08:38:37.187825,1779712717.187825,1698702,-1581353,164039216,132670,-20424,95989,61,0ca7fe00,0.0,0.0,0.0,0.0,0.0,0.0
2026-05-25 08:38:37.188625,1779712717.188625,1698702,-1581353,164039216,132670,-20424,95989,61,0ca7fe00,0.0,0.0,0.0,0.0,0.0,0.0
2026-05-25 08:38:37.189288,1779712717.189288,1950787,-1653465,164152498,115649,-73752,95710,61,0ca7fe00,0.0,0.0,0.0,0.0,0.0,0.0
2026-05-25 08:38:37.190035,1779712717.190035,1950787,-1653465,164152498,115649,-73752,95710,61,0ca7fe00,0.0,0.0,0.0,0.0,0.0,0.0
2026-05-25 08:38:37.190625,1779712717.190625,2257338,-1661230,164194589,70093,-77819,76357,61,0ca6fe00,0.0,0.0,0.0,0.0,0.0,0.0
2026-05-25 08:38:37.191394,1779712717.191394,2257338,-1661230,164194589,70093,-77819,76357,61,0ca6fe00,0.0,0.0,0.0,0.0,0.0,0.0
2026-05-25 08:38:37.191922,1779712717.191922,2295959,-1606617,164298831,41115,-56070,76717,61,0ca7fe00,0.0,0.0,0.0,0.0,0.0,0.0
2026-05-25 08:38:37.192709,1779712717.192709,2295959,-1606617,164298831,41115,-56070,76717,61,0ca7fe00,0.0,0.0,0.0,0.0,0.0,0.0
2026-05-25 08:38:37.193504,1779712717.193504,2353333,-1586533,164340674,38044,-47991,82931,61,0ca7fe00,0.0,0.0,0.0,0.0,0.0,0.0
2026-05-25 08:38:37.195062,1779712717.195062,2353333,-1586533,164340674,38044,-47991,82931,61,0ca7fe00,0.0,0.0,0.0,0.0,0.0,0.0
2026-05-25 08:38:37.198051,1779712717.198051,2319012,-1583483,164312375,39691,-18962,88529,61,0ca7fe00,0.0,0.0,0.0,0.0,0.0,0.0
2026-05-25 08:38:37.202089,1779712717.202089,2319012,-1583483,164312375,39691,-18962,88529,61,0ca7fe00,0.0,0.0,0.0,0.0,0.0,0.0
2026-05-25 08:38:37.204422,1779712717.204422,2271244,-1656690,164217210,-22466,-39890,91646,61,0ca7fe00,0.0,0.0,0.0,0.0,0.0,0.0
2026-05-25 08:38:37.205684,1779712717.205684,2271244,-1656690,164217210,-22466,-39890,91646,61,0ca7fe00,0.0,0.0,0.0,0.0,0.0,0.0
2026-05-25 08:38:37.267010,1779712717.267010,2114510,-1729415,164090575,-105542,-41366,102761,61,0ca7fe00,0.0,0.0,0.0,0.0,0.0,0.0
2026-05-25 08:38:37.267833,1779712717.267833,2114510,-1729415,164090575,-105542,-41366,102761,61,0ca7fe00,0.0,0.0,0.0,0.0,0.0,0.0
2026-05-25 08:38:37.279628,1779712717.279628,1890426,-1749455,164115303,-173022,-106902,104904,61,0ca6fe00,0.0,0.0,0.0,0.0,0.0,0.0
2026-05-25 08:38:37.280384,1779712717.280384,1890426,-1749455,164115303,-173022,-106902,104904,61,0ca6fe00,0.0,0.0,0.0,0.0,0.0,0.0
2026-05-25 08:38:37.280972,1779712717.280972,1785254,-1713979,164100259,-175301,-159181,79104,61,0ca6fe00,0.0,0.0,0.0,0.0,0.0,0.0
2026-05-25 08:38:37.281725,1779712717.281725,1785254,-1713979,164100259,-175301,-159181,79104,61,0ca6fe00,0.0,0.0,0.0,0.0,0.0,0.0
2026-05-25 08:38:37.282332,1779712717.282332,1828206,-1657072,164083283,-190306,-222464,47602,61,0ca6fe00,0.0,0.0,0.0,0.0,0.0,0.0
2026-05-25 08:38:37.283077,1779712717.283077,1828206,-1657072,164083283,-190306,-222464,47602,61,0ca6fe00,0.0,0.0,0.0,0.0,0.0,0.0
2026-05-25 08:38:37.283705,1779712717.283705,1969483,-1670853,164180841,-186618,-249972,21575,61,0ca6fe00,0.0,0.0,0.0,0.0,0.0,0.0
2026-05-25 08:38:37.284444,1779712717.284444,1969483,-1670853,164180841,-186618,-249972,21575,61,0ca6fe00,0.0,0.0,0.0,0.0,0.0,0.0
2026-05-25 08:38:37.285049,1779712717.285049,2140460,-1590010,164299867,-180204,-288084,2582,61,0ca6fe00,0.0,0.0,0.0,0.0,0.0,0.0
2026-05-25 08:38:37.285795,1779712717.285795,2140460,-1590010,164299867,-180204,-288084,2582,61,0ca6fe00,0.0,0.0,0.0,0.0,0.0,0.0
2026-05-25 08:38:37.286394,1779712717.286394,2238190,-1532393,164264990,-188740,-316418,17226,61,0ca6fe00,0.0,0.0,0.0,0.0,0.0,0.0
2026-05-25 08:38:37.287136,1779712717.287136,2238190,-1532393,164264990,-188740,-316418,17226,61,0ca6fe00,0.0,0.0,0.0,0.0,0.0,0.0
2026-05-25 08:38:37.287735,1779712717.287735,2239871,-1390249,164167756,-248796,-364115,32953,61,0ca6fe00,0.0,0.0,0.0,0.0,0.0,0.0
2026-05-25 08:38:37.288478,1779712717.288478,2239871,-1390249,164167756,-248796,-364115,32953,61,0ca6fe00,0.0,0.0,0.0,0.0,0.0,0.0
2026-05-25 08:38:37.289066,1779712717.289066,2160136,-1371804,164214037,-306830,-389794,59448,61,0ca6fe00,0.0,0.0,0.0,0.0,0.0,0.0
2026-05-25 08:38:37.289811,1779712717.289811,2160136,-1371804,164214037,-306830,-389794,59448,61,0ca6fe00,0.0,0.0,0.0,0.0,0.0,0.0
2026-05-25 08:38:37.290405,1779712717.290405,1988919,-1448929,164284506,-330989,-415281,30838,61,0ca6fe00,0.0,0.0,0.0,0.0,0.0,0.0
2026-05-25 08:38:37.291135,1779712717.291135,1988919,-1448929,164284506,-330989,-415281,30838,61,0ca6fe00,0.0,0.0,0.0,0.0,0.0,0.0
2026-05-25 08:38:37.291770,1779712717.291770,2003823,-1558855,164272117,-292907,-392446,35130,61,0ca6fe00,0.0,0.0,0.0,0.0,0.0,0.0
2026-05-25 08:38:37.292733,1779712717.292733,2003823,-1558855,164272117,-292907,-392446,35130,61,0ca6fe00,0.0,0.0,0.0,0.0,0.0,0.0
2026-05-25 08:38:37.293359,1779712717.293359,2043200,-1741877,164283651,-285379,-395416,1195,61,0ca6fe00,0.0,0.0,0.0,0.0,0.0,0.0
2026-05-25 08:38:37.294091,1779712717.294091,2043200,-1741877,164283651,-285379,-395416,1195,61,0ca6fe00,0.0,0.0,0.0,0.0,0.0,0.0
2026-05-25 08:38:37.294680,1779712717.294680,2186037,-1803267,164321136,-276398,-387905,11626,61,0ca6fe00,0.0,0.0,0.0,0.0,0.0,0.0
2026-05-25 08:38:37.295420,1779712717.295420,2186037,-1803267,164321136,-276398,-387905,11626,61,0ca6fe00,0.0,0.0,0.0,0.0,0.0,0.0
2026-05-25 08:38:37.296073,1779712717.296073,2204508,-1878277,164518694,-237443,-384634,-19346,61,0ca6fe00,0.0,0.0,0.0,0.0,0.0,0.0
2026-05-25 08:38:37.296834,1779712717.296834,2204508,-1878277,164518694,-237443,-384634,-19346,61,0ca6fe00,0.0,0.0,0.0,0.0,0.0,0.0
2026-05-25 08:38:37.297441,1779712717.297441,2277338,-1811983,164498064,-140166,-324295,8796,61,0ca6fe00,0.0,0.0,0.0,0.0,0.0,0.0
2026-05-25 08:38:37.298125,1779712717.298125,2277338,-1811983,164498064,-140166,-324295,8796,61,0ca6fe00,0.0,0.0,0.0,0.0,0.0,0.0
2026-05-25 08:38:37.298716,1779712717.298716,2346389,-1724390,164424331,-95891,-300627,2662,61,0ca6fe00,0.0,0.0,0.0,0.0,0.0,0.0
2026-05-25 08:38:37.299462,1779712717.299462,2346389,-1724390,164424331,-95891,-300627,2662,61,0ca6fe00,0.0,0.0,0.0,0.0,0.0,0.0
2026-05-25 08:38:37.300043,1779712717.300043,2443265,-1632047,164447230,-88989,-267272,15850,61,0ca6fe00,0.0,0.0,0.0,0.0,0.0,0.0
2026-05-25 08:38:37.300787,1779712717.300787,2443265,-1632047,164447230,-88989,-267272,15850,61,0ca6fe00,0.0,0.0,0.0,0.0,0.0,0.0
2026-05-25 08:38:37.301384,1779712717.301384,2491383,-1616187,164514556,-100125,-230795,24920,61,0ca5fe00,0.0,0.0,0.0,0.0,0.0,0.0
2026-05-25 08:38:37.302129,1779712717.302129,2491383,-1616187,164514556,-100125,-230795,24920,61,0ca5fe00,0.0,0.0,0.0,0.0,0.0,0.0
2026-05-25 08:38:37.302723,1779712717.302723,2557256,-1686514,164652177,-65322,-136433,81884,61,0ca5fe00,0.0,0.0,0.0,0.0,0.0,0.0
2026-05-25 08:38:37.303469,1779712717.303469,2557256,-1686514,164652177,-65322,-136433,81884,61,0ca5fe00,0.0,0.0,0.0,0.0,0.0,0.0
2026-05-25 08:38:37.304054,1779712717.304054,2564428,-1731608,164603420,-20634,-31936,107771,61,0ca5fe00,0.0,0.0,0.0,0.0,0.0,0.0
2026-05-25 08:38:37.304797,1779712717.304797,2564428,-1731608,164603420,-20634,-31936,107771,61,0ca5fe00,0.0,0.0,0.0,0.0,0.0,0.0
2026-05-25 08:38:37.305377,1779712717.305377,2491880,-1809503,164440588,-28003,74154,132012,61,0ca5fe00,0.0,0.0,0.0,0.0,0.0,0.0
2026-05-25 08:38:37.306117,1779712717.306117,2491880,-1809503,164440588,-28003,74154,132012,61,0ca5fe00,0.0,0.0,0.0,0.0,0.0,0.0
2026-05-25 08:38:37.306720,1779712717.306720,2254828,-1878275,164324428,-45076,97425,124715,61,0ca6fe00,0.0,0.0,0.0,0.0,0.0,0.0
2026-05-25 08:38:37.307459,1779712717.307459,2254828,-1878275,164324428,-45076,97425,124715,61,0ca6fe00,0.0,0.0,0.0,0.0,0.0,0.0
2026-05-25 08:38:37.308040,1779712717.308040,2001002,-1870450,164272253,-56954,98146,121999,61,0ca5fe00,0.0,0.0,0.0,0.0,0.0,0.0
2026-05-25 08:38:37.308783,1779712717.308783,2001002,-1870450,164272253,-56954,98146,121999,61,0ca5fe00,0.0,0.0,0.0,0.0,0.0,0.0
2026-05-25 08:38:37.309370,1779712717.309370,1871326,-1864253,164181678,-51832,-8105,92741,61,0ca5fe00,0.0,0.0,0.0,0.0,0.0,0.0
2026-05-25 08:38:37.310103,1779712717.310103,1871326,-1864253,164181678,-51832,-8105,92741,61,0ca5fe00,0.0,0.0,0.0,0.0,0.0,0.0
2026-05-25 08:38:37.310677,1779712717.310677,1896021,-1824748,164138550,-45163,-80323,62189,61,0ca5fe00,0.0,0.0,0.0,0.0,0.0,0.0
2026-05-25 08:38:37.311407,1779712717.311407,1896021,-1824748,164138550,-45163,-80323,62189,61,0ca5fe00,0.0,0.0,0.0,0.0,0.0,0.0
2026-05-25 08:38:37.311988,1779712717.311988,1990857,-1779032,164199161,-58781,-147179,58609,61,0ca5fe00,0.0,0.0,0.0,0.0,0.0,0.0
2026-05-25 08:38:37.312715,1779712717.312715,1990857,-1779032,164199161,-58781,-147179,58609,61,0ca5fe00,0.0,0.0,0.0,0.0,0.0,0.0
2026-05-25 08:38:37.313320,1779712717.313320,2089617,-1672254,164391658,-37729,-146099,61022,61,0ca5fe00,0.0,0.0,0.0,0.0,0.0,0.0
2026-05-25 08:38:37.314072,1779712717.314072,2089617,-1672254,164391658,-37729,-146099,61022,61,0ca5fe00,0.0,0.0,0.0,0.0,0.0,0.0
2026-05-25 08:38:37.314659,1779712717.314659,2168393,-1522216,164416021,-33060,-129099,79213,61,0ca5fe00,0.0,0.0,0.0,0.0,0.0,0.0
2026-05-25 08:38:37.315398,1779712717.315398,2168393,-1522216,164416021,-33060,-129099,79213,61,0ca5fe00,0.0,0.0,0.0,0.0,0.0,0.0
2026-05-25 08:38:37.316028,1779712717.316028,2272513,-1483709,164373011,-11523,-81067,77566,61,0ca5fe00,0.0,0.0,0.0,0.0,0.0,0.0
2026-05-25 08:38:37.316780,1779712717.316780,2272513,-1483709,164373011,-11523,-81067,77566,61,0ca5fe00,0.0,0.0,0.0,0.0,0.0,0.0
2026-05-25 08:38:37.317542,1779712717.317542,2290017,-1392482,164312635,-2741,-102902,54281,61,0ca5fe00,0.0,0.0,0.0,0.0,0.0,0.0
2026-05-25 08:38:37.318325,1779712717.318325,2290017,-1392482,164312635,-2741,-102902,54281,61,0ca5fe00,0.0,0.0,0.0,0.0,0.0,0.0
2026-05-25 08:38:37.318933,1779712717.318933,2319694,-1627658,164415325,20385,-36544,58891,61,0ca5fe00,0.0,0.0,0.0,0.0,0.0,0.0
2026-05-25 08:38:37.319703,1779712717.319703,2319694,-1627658,164415325,20385,-36544,58891,61,0ca5fe00,0.0,0.0,0.0,0.0,0.0,0.0
2026-05-25 08:38:37.320330,1779712717.320330,2293264,-1732199,164257002,69564,-54929,41432,61,0ca5fe00,0.0,0.0,0.0,0.0,0.0,0.0
2026-05-25 08:38:37.321290,1779712717.321290,2293264,-1732199,164257002,69564,-54929,41432,61,0ca5fe00,0.0,0.0,0.0,0.0,0.0,0.0
2026-05-25 08:38:37.321909,1779712717.321909,2321699,-2052399,164495593,82743,11604,77050,61,0ca5fe00,0.0,0.0,0.0,0.0,0.0,0.0
2026-05-25 08:38:37.322649,1779712717.322649,2321699,-2052399,164495593,82743,11604,77050,61,0ca5fe00,0.0,0.0,0.0,0.0,0.0,0.0
2026-05-25 08:38:37.323249,1779712717.323249,2226838,-1933636,164033418,46221,-29119,61475,61,0ca5fe00,0.0,0.0,0.0,0.0,0.0,0.0
2026-05-25 08:38:37.323972,1779712717.323972,2226838,-1933636,164033418,46221,-29119,61475,61,0ca5fe00,0.0,0.0,0.0,0.0,0.0,0.0
2026-05-25 08:38:37.324551,1779712717.324551,2137319,-1956050,164254282,-26119,-33668,92671,61,0ca5fe00,0.0,0.0,0.0,0.0,0.0,0.0
2026-05-25 08:38:37.325282,1779712717.325282,2137319,-1956050,164254282,-26119,-33668,92671,61,0ca5fe00,0.0,0.0,0.0,0.0,0.0,0.0
2026-05-25 08:38:37.325842,1779712717.325842,1970587,-1599870,163958228,-40351,-87046,61602,61,0ca5fe00,0.0,0.0,0.0,0.0,0.0,0.0
2026-05-25 08:38:37.326583,1779712717.326583,1970587,-1599870,163958228,-40351,-87046,61602,61,0ca5fe00,0.0,0.0,0.0,0.0,0.0,0.0
2026-05-25 08:38:37.327174,1779712717.327174,2022206,-1586164,164120274,-65905,-167502,48716,61,0ca5fe00,0.0,0.0,0.0,0.0,0.0,0.0
2026-05-25 08:38:37.328103,1779712717.328103,2022206,-1586164,164120274,-65905,-167502,48716,61,0ca5fe00,0.0,0.0,0.0,0.0,0.0,0.0
2026-05-25 08:38:37.328701,1779712717.328701,2115661,-1379336,164134098,-68917,-194032,29881,61,0ca4fe00,0.0,0.0,0.0,0.0,0.0,0.0
2026-05-25 08:38:37.329444,1779712717.329444,2115661,-1379336,164134098,-68917,-194032,29881,61,0ca4fe00,0.0,0.0,0.0,0.0,0.0,0.0
2026-05-25 08:38:37.330034,1779712717.330034,2252110,-1499998,164186106,-93784,-242493,22136,61,0ca4fe00,0.0,0.0,0.0,0.0,0.0,0.0
2026-05-25 08:38:37.330802,1779712717.330802,2252110,-1499998,164186106,-93784,-242493,22136,61,0ca4fe00,0.0,0.0,0.0,0.0,0.0,0.0
2026-05-25 08:38:37.331403,1779712717.331403,2275874,-1470393,164357142,-129385,-225292,48436,61,0ca4fe00,0.0,0.0,0.0,0.0,0.0,0.0
2026-05-25 08:38:37.332165,1779712717.332165,2275874,-1470393,164357142,-129385,-225292,48436,61,0ca4fe00,0.0,0.0,0.0,0.0,0.0,0.0
2026-05-25 08:38:37.332748,1779712717.332748,2232287,-1679184,164450162,-99574,-215192,81459,61,0ca4fe00,0.0,0.0,0.0,0.0,0.0,0.0
2026-05-25 08:38:37.333495,1779712717.333495,2232287,-1679184,164450162,-99574,-215192,81459,61,0ca4fe00,0.0,0.0,0.0,0.0,0.0,0.0
2026-05-25 08:38:37.334123,1779712717.334123,2252737,-1732388,164454491,-114142,-170133,91014,61,0ca4fe00,0.0,0.0,0.0,0.0,0.0,0.0
2026-05-25 08:38:37.335018,1779712717.335018,2252737,-1732388,164454491,-114142,-170133,91014,61,0ca4fe00,0.0,0.0,0.0,0.0,0.0,0.0
2026-05-25 08:38:37.335619,1779712717.335619,2236543,-1952197,164438250,-87341,-159844,91001,61,0ca4fe00,0.0,0.0,0.0,0.0,0.0,0.0
2026-05-25 08:38:37.336375,1779712717.336375,2236543,-1952197,164438250,-87341,-159844,91001,61,0ca4fe00,0.0,0.0,0.0,0.0,0.0,0.0
2026-05-25 08:38:37.336968,1779712717.336968,2287307,-2031428,164291449,-90007,-124660,92209,61,0ca4fe00,0.0,0.0,0.0,0.0,0.0,0.0
2026-05-25 08:38:37.337726,1779712717.337726,2287307,-2031428,164291449,-90007,-124660,92209,61,0ca4fe00,0.0,0.0,0.0,0.0,0.0,0.0
2026-05-25 08:38:37.338318,1779712717.338318,2254979,-2134898,164451903,-35717,-104740,80546,61,0ca4fe00,0.0,0.0,0.0,0.0,0.0,0.0
2026-05-25 08:38:37.339066,1779712717.339066,2254979,-2134898,164451903,-35717,-104740,80546,61,0ca4fe00,0.0,0.0,0.0,0.0,0.0,0.0
2026-05-25 08:38:37.339657,1779712717.339657,2298140,-2008491,164337805,41381,-45326,102522,61,0ca4fe00,0.0,0.0,0.0,0.0,0.0,0.0
2026-05-25 08:38:37.340415,1779712717.340415,2298140,-2008491,164337805,41381,-45326,102522,61,0ca4fe00,0.0,0.0,0.0,0.0,0.0,0.0
2026-05-25 08:38:37.341002,1779712717.341002,2262038,-1792122,164306667,85916,-14056,110575,61,0ca4fe00,0.0,0.0,0.0,0.0,0.0,0.0
2026-05-25 08:38:37.341766,1779712717.341766,2262038,-1792122,164306667,85916,-14056,110575,61,0ca4fe00,0.0,0.0,0.0,0.0,0.0,0.0
2026-05-25 08:38:37.342526,1779712717.342526,2277140,-1473891,164166635,79855,11560,123696,61,0ca4fe00,0.0,0.0,0.0,0.0,0.0,0.0
2026-05-25 08:38:37.343329,1779712717.343329,2277140,-1473891,164166635,79855,11560,123696,61,0ca4fe00,0.0,0.0,0.0,0.0,0.0,0.0
2026-05-25 08:38:37.343915,1779712717.343915,2203569,-1266041,164228641,30141,-25534,91862,61,0ca4fe00,0.0,0.0,0.0,0.0,0.0,0.0
2026-05-25 08:38:37.344663,1779712717.344663,2203569,-1266041,164228641,30141,-25534,91862,61,0ca4fe00,0.0,0.0,0.0,0.0,0.0,0.0
2026-05-25 08:38:37.345591,1779712717.345591,2174925,-1265828,164287742,34311,-37194,82194,61,0ca4fe00,0.0,0.0,0.0,0.0,0.0,0.0
2026-05-25 08:38:37.346318,1779712717.346318,2174925,-1265828,164287742,34311,-37194,82194,61,0ca4fe00,0.0,0.0,0.0,0.0,0.0,0.0
2026-05-25 08:38:37.346821,1779712717.346821,2203845,-1484715,164346373,43588,-72119,69453,61,0ca4fe00,0.0,0.0,0.0,0.0,0.0,0.0
2026-05-25 08:38:37.347476,1779712717.347476,2203845,-1484715,164346373,43588,-72119,69453,61,0ca4fe00,0.0,0.0,0.0,0.0,0.0,0.0
2026-05-25 08:38:37.348050,1779712717.348050,2285634,-1744787,164306649,82963,-53329,55103,61,0ca4fe00,0.0,0.0,0.0,0.0,0.0,0.0
2026-05-25 08:38:37.348825,1779712717.348825,2285634,-1744787,164306649,82963,-53329,55103,61,0ca4fe00,0.0,0.0,0.0,0.0,0.0,0.0
2026-05-25 08:38:37.349407,1779712717.349407,2269966,-1980000,164237964,66559,-47270,61841,61,0ca4fe00,0.0,0.0,0.0,0.0,0.0,0.0
2026-05-25 08:38:37.350164,1779712717.350164,2269966,-1980000,164237964,66559,-47270,61841,61,0ca4fe00,0.0,0.0,0.0,0.0,0.0,0.0
2026-05-25 08:38:37.350730,1779712717.350730,2117286,-1996739,164268904,86619,-26382,68377,61,0ca4fe00,0.0,0.0,0.0,0.0,0.0,0.0
2026-05-25 08:38:37.351452,1779712717.351452,2117286,-1996739,164268904,86619,-26382,68377,61,0ca4fe00,0.0,0.0,0.0,0.0,0.0,0.0
2026-05-25 08:38:37.352025,1779712717.352025,2072140,-1993502,164216720,97562,-41119,73457,61,0ca4fe00,0.0,0.0,0.0,0.0,0.0,0.0
2026-05-25 08:38:37.352756,1779712717.352756,2072140,-1993502,164216720,97562,-41119,73457,61,0ca4fe00,0.0,0.0,0.0,0.0,0.0,0.0
2026-05-25 08:38:37.353330,1779712717.353330,2162204,-1873351,164290101,113833,-60534,55511,61,0ca4fe00,0.0,0.0,0.0,0.0,0.0,0.0
2026-05-25 08:38:37.354034,1779712717.354034,2162204,-1873351,164290101,113833,-60534,55511,61,0ca4fe00,0.0,0.0,0.0,0.0,0.0,0.0
2026-05-25 08:38:37.354609,1779712717.354609,2294945,-1829745,164313736,110282,-22726,51215,61,0ca4fe00,0.0,0.0,0.0,0.0,0.0,0.0
2026-05-25 08:38:37.355358,1779712717.355358,2294945,-1829745,164313736,110282,-22726,51215,61,0ca4fe00,0.0,0.0,0.0,0.0,0.0,0.0
2026-05-25 08:38:37.355981,1779712717.355981,2338248,-1692675,164377803,105333,7938,77650,61,0ca3fe00,0.0,0.0,0.0,0.0,0.0,0.0
2026-05-25 08:38:37.356758,1779712717.356758,2338248,-1692675,164377803,105333,7938,77650,61,0ca3fe00,0.0,0.0,0.0,0.0,0.0,0.0
2026-05-25 08:38:37.357377,1779712717.357377,2313226,-1604519,164373063,95190,55796,86726,61,0ca3fe00,0.0,0.0,0.0,0.0,0.0,0.0
2026-05-25 08:38:37.358140,1779712717.358140,2313226,-1604519,164373063,95190,55796,86726,61,0ca3fe00,0.0,0.0,0.0,0.0,0.0,0.0
2026-05-25 08:38:37.358744,1779712717.358744,2153372,-1357227,164207277,50135,47645,86795,61,0ca3fe00,0.0,0.0,0.0,0.0,0.0,0.0
2026-05-25 08:38:37.359503,1779712717.359503,2153372,-1357227,164207277,50135,47645,86795,61,0ca3fe00,0.0,0.0,0.0,0.0,0.0,0.0
2026-05-25 08:38:37.360091,1779712717.360091,1963770,-1352695,164120265,9182,-11407,73595,61,0ca3fe00,0.0,0.0,0.0,0.0,0.0,0.0
2026-05-25 08:38:37.360862,1779712717.360862,1963770,-1352695,164120265,9182,-11407,73595,61,0ca3fe00,0.0,0.0,0.0,0.0,0.0,0.0
2026-05-25 08:38:37.361463,1779712717.361463,1851570,-1419413,164054656,-39385,-84352,53013,61,0ca3fe00,0.0,0.0,0.0,0.0,0.0,0.0
2026-05-25 08:38:37.362241,1779712717.362241,1851570,-1419413,164054656,-39385,-84352,53013,61,0ca3fe00,0.0,0.0,0.0,0.0,0.0,0.0
2026-05-25 08:38:37.362835,1779712717.362835,1865601,-1664441,164075007,-64050,-184268,41050,61,0ca3fe00,0.0,0.0,0.0,0.0,0.0,0.0
2026-05-25 08:38:37.363806,1779712717.363806,1865601,-1664441,164075007,-64050,-184268,41050,61,0ca3fe00,0.0,0.0,0.0,0.0,0.0,0.0
2026-05-25 08:38:37.364436,1779712717.364436,1978669,-1845707,164160016,-99266,-218749,35760,61,0ca3fe00,0.0,0.0,0.0,0.0,0.0,0.0
2026-05-25 08:38:37.365160,1779712717.365160,1978669,-1845707,164160016,-99266,-218749,35760,61,0ca3fe00,0.0,0.0,0.0,0.0,0.0,0.0
2026-05-25 08:38:37.365727,1779712717.365727,2033034,-1937961,164200637,-101583,-224319,86426,61,0ca3fe00,0.0,0.0,0.0,0.0,0.0,0.0
2026-05-25 08:38:37.366471,1779712717.366471,2033034,-1937961,164200637,-101583,-224319,86426,61,0ca3fe00,0.0,0.0,0.0,0.0,0.0,0.0
2026-05-25 08:38:37.367060,1779712717.367060,2076092,-1945448,164379819,-86713,-212745,106878,61,0ca3fe00,0.0,0.0,0.0,0.0,0.0,0.0
2026-05-25 08:38:37.367773,1779712717.367773,2076092,-1945448,164379819,-86713,-212745,106878,61,0ca3fe00,0.0,0.0,0.0,0.0,0.0,0.0
2026-05-25 08:38:37.368262,1779712717.368262,2209180,-1808450,164172330,-75661,-185972,121974,61,0ca3fe00,0.0,0.0,0.0,0.0,0.0,0.0
2026-05-25 08:38:37.369017,1779712717.369017,2209180,-1808450,164172330,-75661,-185972,121974,61,0ca3fe00,0.0,0.0,0.0,0.0,0.0,0.0
2026-05-25 08:38:37.369635,1779712717.369635,2353560,-1747028,164378878,-77992,-180019,80126,61,0ca3fe00,0.0,0.0,0.0,0.0,0.0,0.0
2026-05-25 08:38:37.370405,1779712717.370405,2353560,-1747028,164378878,-77992,-180019,80126,61,0ca3fe00,0.0,0.0,0.0,0.0,0.0,0.0
2026-05-25 08:38:37.370983,1779712717.370983,2449255,-1680033,164272216,-57773,-119468,84540,61,0ca3fe00,0.0,0.0,0.0,0.0,0.0,0.0
2026-05-25 08:38:37.371754,1779712717.371754,2449255,-1680033,164272216,-57773,-119468,84540,61,0ca3fe00,0.0,0.0,0.0,0.0,0.0,0.0
2026-05-25 08:38:37.372346,1779712717.372346,2422569,-1635147,164553385,-54092,-89247,57845,61,0ca3fe00,0.0,0.0,0.0,0.0,0.0,0.0
2026-05-25 08:38:37.373086,1779712717.373086,2422569,-1635147,164553385,-54092,-89247,57845,61,0ca3fe00,0.0,0.0,0.0,0.0,0.0,0.0
2026-05-25 08:38:37.373700,1779712717.373700,2369142,-1602203,164260663,-36518,-36406,90356,61,0ca2fe00,0.0,0.0,0.0,0.0,0.0,0.0
2026-05-25 08:38:37.374449,1779712717.374449,2369142,-1602203,164260663,-36518,-36406,90356,61,0ca2fe00,0.0,0.0,0.0,0.0,0.0,0.0
2026-05-25 08:38:37.375036,1779712717.375036,2179684,-1672652,164253878,-88085,-59716,106816,61,0ca2fe00,0.0,0.0,0.0,0.0,0.0,0.0
2026-05-25 08:38:37.375785,1779712717.375785,2179684,-1672652,164253878,-88085,-59716,106816,61,0ca2fe00,0.0,0.0,0.0,0.0,0.0,0.0
2026-05-25 08:38:37.376403,1779712717.376403,2038379,-1743468,164056873,-131174,-79717,107998,61,0ca3fe00,0.0,0.0,0.0,0.0,0.0,0.0
2026-05-25 08:38:37.377164,1779712717.377164,2038379,-1743468,164056873,-131174,-79717,107998,61,0ca3fe00,0.0,0.0,0.0,0.0,0.0,0.0
2026-05-25 08:38:37.377775,1779712717.377775,1871404,-1876774,164189950,-153642,-151866,98119,61,0ca3fe00,0.0,0.0,0.0,0.0,0.0,0.0
2026-05-25 08:38:37.378564,1779712717.378564,1871404,-1876774,164189950,-153642,-151866,98119,61,0ca3fe00,0.0,0.0,0.0,0.0,0.0,0.0
2026-05-25 08:38:37.379160,1779712717.379160,2011562,-1876516,164225809,-116392,-189350,83005,61,0ca3fe00,0.0,0.0,0.0,0.0,0.0,0.0
2026-05-25 08:38:37.379913,1779712717.379913,2011562,-1876516,164225809,-116392,-189350,83005,61,0ca3fe00,0.0,0.0,0.0,0.0,0.0,0.0
2026-05-25 08:38:37.380526,1779712717.380526,2188308,-1850694,164364598,-74839,-201985,75763,61,0ca3fe00,0.0,0.0,0.0,0.0,0.0,0.0
2026-05-25 08:38:37.381300,1779712717.381300,2188308,-1850694,164364598,-74839,-201985,75763,61,0ca3fe00,0.0,0.0,0.0,0.0,0.0,0.0
2026-05-25 08:38:37.381896,1779712717.381896,2404756,-1752844,164477135,-34704,-155127,82459,61,0ca2fe00,0.0,0.0,0.0,0.0,0.0,0.0
2026-05-25 08:38:37.382651,1779712717.382651,2404756,-1752844,164477135,-34704,-155127,82459,61,0ca2fe00,0.0,0.0,0.0,0.0,0.0,0.0
2026-05-25 08:38:37.383263,1779712717.383263,2490653,-1673721,164501319,229,-107085,87270,61,0ca2fe00,0.0,0.0,0.0,0.0,0.0,0.0
2026-05-25 08:38:37.384275,1779712717.384275,2490653,-1673721,164501319,229,-107085,87270,61,0ca2fe00,0.0,0.0,0.0,0.0,0.0,0.0
2026-05-25 08:38:37.384983,1779712717.384983,2481600,-1568264,164621515,35747,-34268,98637,61,0ca2fe00,0.0,0.0,0.0,0.0,0.0,0.0
2026-05-25 08:38:37.385982,1779712717.385982,2481600,-1568264,164621515,35747,-34268,98637,61,0ca2fe00,0.0,0.0,0.0,0.0,0.0,0.0
2026-05-25 08:38:37.386641,1779712717.386641,2358323,-1477152,164403582,60576,-20922,83969,61,0ca2fe00,0.0,0.0,0.0,0.0,0.0,0.0
2026-05-25 08:38:37.387481,1779712717.387481,2358323,-1477152,164403582,60576,-20922,83969,61,0ca2fe00,0.0,0.0,0.0,0.0,0.0,0.0
2026-05-25 08:38:37.388105,1779712717.388105,2342818,-1472112,164354785,66892,19203,106793,61,0ca2fe00,0.0,0.0,0.0,0.0,0.0,0.0
2026-05-25 08:38:37.388913,1779712717.388913,2342818,-1472112,164354785,66892,19203,106793,61,0ca2fe00,0.0,0.0,0.0,0.0,0.0,0.0
2026-05-25 08:38:37.389721,1779712717.389721,2213359,-1510799,164162574,10355,-21273,96632,61,0ca2fe00,0.0,0.0,0.0,0.0,0.0,0.0
2026-05-25 08:38:37.390807,1779712717.390807,2213359,-1510799,164162574,10355,-21273,96632,61,0ca2fe00,0.0,0.0,0.0,0.0,0.0,0.0
2026-05-25 08:38:37.391621,1779712717.391621,2268825,-1740559,164328396,-21640,-15644,109601,61,0ca2fe00,0.0,0.0,0.0,0.0,0.0,0.0
2026-05-25 08:38:37.392474,1779712717.392474,2268825,-1740559,164328396,-21640,-15644,109601,61,0ca2fe00,0.0,0.0,0.0,0.0,0.0,0.0
2026-05-25 08:38:37.393097,1779712717.393097,2161811,-1837011,164336530,-3139,-18471,69281,61,0ca2fe00,0.0,0.0,0.0,0.0,0.0,0.0
2026-05-25 08:38:37.393915,1779712717.393915,2161811,-1837011,164336530,-3139,-18471,69281,61,0ca2fe00,0.0,0.0,0.0,0.0,0.0,0.0
2026-05-25 08:38:37.394550,1779712717.394550,2202221,-1990223,164351145,39682,6834,96813,61,0ca2fe00,0.0,0.0,0.0,0.0,0.0,0.0
2026-05-25 08:38:37.395361,1779712717.395361,2202221,-1990223,164351145,39682,6834,96813,61,0ca2fe00,0.0,0.0,0.0,0.0,0.0,0.0
2026-05-25 08:38:37.395970,1779712717.395970,2152747,-1908620,164398919,97223,39883,86765,61,0ca2fe00,0.0,0.0,0.0,0.0,0.0,0.0
2026-05-25 08:38:37.396749,1779712717.396749,2152747,-1908620,164398919,97223,39883,86765,61,0ca2fe00,0.0,0.0,0.0,0.0,0.0,0.0
2026-05-25 08:38:37.397422,1779712717.397422,2182329,-1868939,164298823,113346,51265,106699,61,0ca2fe00,0.0,0.0,0.0,0.0,0.0,0.0
2026-05-25 08:38:37.398279,1779712717.398279,2182329,-1868939,164298823,113346,51265,106699,61,0ca2fe00,0.0,0.0,0.0,0.0,0.0,0.0
2026-05-25 08:38:37.398941,1779712717.398941,2145167,-1704238,164371398,123647,60918,99655,61,0ca2fe00,0.0,0.0,0.0,0.0,0.0,0.0
2026-05-25 08:38:37.399792,1779712717.399792,2145167,-1704238,164371398,123647,60918,99655,61,0ca2fe00,0.0,0.0,0.0,0.0,0.0,0.0
2026-05-25 08:38:37.400472,1779712717.400472,2185287,-1651460,164183590,112573,47823,96557,61,0ca2fe00,0.0,0.0,0.0,0.0,0.0,0.0
2026-05-25 08:38:37.401329,1779712717.401329,2185287,-1651460,164183590,112573,47823,96557,61,0ca2fe00,0.0,0.0,0.0,0.0,0.0,0.0
2026-05-25 08:38:37.401998,1779712717.401998,2120410,-1510106,164155212,58039,26757,89016,61,0ca2fe00,0.0,0.0,0.0,0.0,0.0,0.0
2026-05-25 08:38:37.402848,1779712717.402848,2120410,-1510106,164155212,58039,26757,89016,61,0ca2fe00,0.0,0.0,0.0,0.0,0.0,0.0
2026-05-25 08:38:37.403529,1779712717.403529,2084339,-1509180,164100962,23049,-10857,88977,61,0ca2fe00,0.0,0.0,0.0,0.0,0.0,0.0
2026-05-25 08:38:37.404393,1779712717.404393,2084339,-1509180,164100962,23049,-10857,88977,61,0ca2fe00,0.0,0.0,0.0,0.0,0.0,0.0
2026-05-25 08:38:37.405067,1779712717.405067,1993470,-1502529,164155085,25784,-54016,82947,61,0ca2fe00,0.0,0.0,0.0,0.0,0.0,0.0
2026-05-25 08:38:37.405934,1779712717.405934,1993470,-1502529,164155085,25784,-54016,82947,61,0ca2fe00,0.0,0.0,0.0,0.0,0.0,0.0
2026-05-25 08:38:37.406746,1779712717.406746,2019094,-1605114,164251007,43601,-92829,83896,61,0ca2fe00,0.0,0.0,0.0,0.0,0.0,0.0
2026-05-25 08:38:37.407677,1779712717.407677,2019094,-1605114,164251007,43601,-92829,83896,61,0ca2fe00,0.0,0.0,0.0,0.0,0.0,0.0
2026-05-25 08:38:37.408383,1779712717.408383,2109412,-1714013,164241532,61020,-113274,95873,61,0ca2fe00,0.0,0.0,0.0,0.0,0.0,0.0
2026-05-25 08:38:37.409305,1779712717.409305,2109412,-1714013,164241532,61020,-113274,95873,61,0ca2fe00,0.0,0.0,0.0,0.0,0.0,0.0
2026-05-25 08:38:37.410009,1779712717.410009,2218792,-1794085,164284685,-3141,-131685,124834,61,0ca2fe00,0.0,0.0,0.0,0.0,0.0,0.0
2026-05-25 08:38:37.410825,1779712717.410825,2218792,-1794085,164284685,-3141,-131685,124834,61,0ca2fe00,0.0,0.0,0.0,0.0,0.0,0.0
2026-05-25 08:38:37.411568,1779712717.411568,2201519,-1901515,164330159,-22732,-133673,123170,61,0ca2fe00,0.0,0.0,0.0,0.0,0.0,0.0
2026-05-25 08:38:37.412729,1779712717.412729,2201519,-1901515,164330159,-22732,-133673,123170,61,0ca2fe00,0.0,0.0,0.0,0.0,0.0,0.0
2026-05-25 08:38:37.413485,1779712717.413485,2116141,-1926130,164334552,-23948,-153785,106699,61,0ca2fe00,0.0,0.0,0.0,0.0,0.0,0.0
2026-05-25 08:38:37.414410,1779712717.414410,2116141,-1926130,164334552,-23948,-153785,106699,61,0ca2fe00,0.0,0.0,0.0,0.0,0.0,0.0
2026-05-25 08:38:37.415120,1779712717.415120,2031337,-1899212,164337789,16664,-135903,95007,61,0ca2fe00,0.0,0.0,0.0,0.0,0.0,0.0
2026-05-25 08:38:37.416073,1779712717.416073,2031337,-1899212,164337789,16664,-135903,95007,61,0ca2fe00,0.0,0.0,0.0,0.0,0.0,0.0
2026-05-25 08:38:37.418394,1779712717.418394,2085528,-1788987,164287103,26290,-149449,93592,61,0ca2fe00,0.0,0.0,0.0,0.0,0.0,0.0
2026-05-25 08:38:37.423332,1779712717.423332,2085528,-1788987,164287103,26290,-149449,93592,61,0ca2fe00,0.0,0.0,0.0,0.0,0.0,0.0
2026-05-25 08:38:37.426045,1779712717.426045,2205176,-1656036,164246980,2124,-152387,59139,61,0ca2fe00,0.0,0.0,0.0,0.0,0.0,0.0
2026-05-25 08:38:37.427072,1779712717.427072,2205176,-1656036,164246980,2124,-152387,59139,61,0ca2fe00,0.0,0.0,0.0,0.0,0.0,0.0
2026-05-25 08:38:37.495213,1779712717.495213,2391259,-1586405,164342727,-38927,-181576,53878,61,0ca2fe00,0.0,0.0,0.0,0.0,0.0,0.0
2026-05-25 08:38:37.496212,1779712717.496212,2391259,-1586405,164342727,-38927,-181576,53878,61,0ca2fe00,0.0,0.0,0.0,0.0,0.0,0.0
2026-05-25 08:38:37.497276,1779712717.497276,2424129,-1526302,164360830,-47929,-174953,43205,61,0ca2fe00,0.0,0.0,0.0,0.0,0.0,0.0
2026-05-25 08:38:37.498294,1779712717.498294,2424129,-1526302,164360830,-47929,-174953,43205,61,0ca2fe00,0.0,0.0,0.0,0.0,0.0,0.0
2026-05-25 08:38:37.499087,1779712717.499087,2452206,-1589897,164514017,-53714,-130187,59636,61,0ca2fe00,0.0,0.0,0.0,0.0,0.0,0.0
2026-05-25 08:38:37.500097,1779712717.500097,2452206,-1589897,164514017,-53714,-130187,59636,61,0ca2fe00,0.0,0.0,0.0,0.0,0.0,0.0
2026-05-25 08:38:37.500879,1779712717.500879,2345807,-1668074,164495222,-12430,-41671,72974,61,0ca1fe00,0.0,0.0,0.0,0.0,0.0,0.0
2026-05-25 08:38:37.501876,1779712717.501876,2345807,-1668074,164495222,-12430,-41671,72974,61,0ca1fe00,0.0,0.0,0.0,0.0,0.0,0.0
2026-05-25 08:38:37.502683,1779712717.502683,2307423,-1797637,164443744,6607,17557,84290,61,0ca1fe00,0.0,0.0,0.0,0.0,0.0,0.0
2026-05-25 08:38:37.503692,1779712717.503692,2307423,-1797637,164443744,6607,17557,84290,61,0ca1fe00,0.0,0.0,0.0,0.0,0.0,0.0
2026-05-25 08:38:37.504472,1779712717.504472,2191675,-1862161,164279131,46244,37850,92588,61,0ca1fe00,0.0,0.0,0.0,0.0,0.0,0.0
2026-05-25 08:38:37.505462,1779712717.505462,2191675,-1862161,164279131,46244,37850,92588,61,0ca1fe00,0.0,0.0,0.0,0.0,0.0,0.0
2026-05-25 08:38:37.506234,1779712717.506234,2067302,-1912971,164170777,28669,-6930,80038,61,0ca1fe00,0.0,0.0,0.0,0.0,0.0,0.0
2026-05-25 08:38:37.507224,1779712717.507224,2067302,-1912971,164170777,28669,-6930,80038,61,0ca1fe00,0.0,0.0,0.0,0.0,0.0,0.0
2026-05-25 08:38:37.507991,1779712717.507991,1960292,-1956798,164241757,31776,-49026,67266,61,0ca1fe00,0.0,0.0,0.0,0.0,0.0,0.0
2026-05-25 08:38:37.509010,1779712717.509010,1960292,-1956798,164241757,31776,-49026,67266,61,0ca1fe00,0.0,0.0,0.0,0.0,0.0,0.0
2026-05-25 08:38:37.509785,1779712717.509785,1964493,-1907463,164288452,17091,-68371,62617,61,0ca1fe00,0.0,0.0,0.0,0.0,0.0,0.0
2026-05-25 08:38:37.510785,1779712717.510785,1964493,-1907463,164288452,17091,-68371,62617,61,0ca1fe00,0.0,0.0,0.0,0.0,0.0,0.0
2026-05-25 08:38:37.511561,1779712717.511561,2109765,-1792503,164370375,40689,-86230,44830,61,0ca1fe00,0.0,0.0,0.0,0.0,0.0,0.0
2026-05-25 08:38:37.512524,1779712717.512524,2109765,-1792503,164370375,40689,-86230,44830,61,0ca1fe00,0.0,0.0,0.0,0.0,0.0,0.0
2026-05-25 08:38:37.513296,1779712717.513296,2310068,-1689552,164415221,56138,-72437,46801,61,0ca1fe00,0.0,0.0,0.0,0.0,0.0,0.0
2026-05-25 08:38:37.514270,1779712717.514270,2310068,-1689552,164415221,56138,-72437,46801,61,0ca1fe00,0.0,0.0,0.0,0.0,0.0,0.0
2026-05-25 08:38:37.515020,1779712717.515020,2471476,-1606553,164485915,78745,-34938,75869,61,0ca1fe00,0.0,0.0,0.0,0.0,0.0,0.0
2026-05-25 08:38:37.515982,1779712717.515982,2471476,-1606553,164485915,78745,-34938,75869,61,0ca1fe00,0.0,0.0,0.0,0.0,0.0,0.0
2026-05-25 08:38:37.516744,1779712717.516744,2543226,-1570785,164541326,105568,32289,101275,61,0ca1fe00,0.0,0.0,0.0,0.0,0.0,0.0
2026-05-25 08:38:37.517706,1779712717.517706,2543226,-1570785,164541326,105568,32289,101275,61,0ca1fe00,0.0,0.0,0.0,0.0,0.0,0.0
2026-05-25 08:38:37.518484,1779712717.518484,2474472,-1617146,164489406,118668,86121,106487,61,0ca1fe00,0.0,0.0,0.0,0.0,0.0,0.0
2026-05-25 08:38:37.519445,1779712717.519445,2474472,-1617146,164489406,118668,86121,106487,61,0ca1fe00,0.0,0.0,0.0,0.0,0.0,0.0
2026-05-25 08:38:37.520213,1779712717.520213,2365942,-1691597,164420488,124628,101571,104344,61,0ca0fe00,0.0,0.0,0.0,0.0,0.0,0.0
2026-05-25 08:38:37.521174,1779712717.521174,2365942,-1691597,164420488,124628,101571,104344,61,0ca0fe00,0.0,0.0,0.0,0.0,0.0,0.0
2026-05-25 08:38:37.521939,1779712717.521939,2162756,-1805664,164277866,113862,122839,110388,61,0ca0fe00,0.0,0.0,0.0,0.0,0.0,0.0
2026-05-25 08:38:37.522896,1779712717.522896,2162756,-1805664,164277866,113862,122839,110388,61,0ca0fe00,0.0,0.0,0.0,0.0,0.0,0.0
2026-05-25 08:38:37.523997,1779712717.523997,2070033,-1854077,164265367,123691,125540,106602,61,0ca0fe00,0.0,0.0,0.0,0.0,0.0,0.0
2026-05-25 08:38:37.525447,1779712717.525447,2070033,-1854077,164265367,123691,125540,106602,61,0ca0fe00,0.0,0.0,0.0,0.0,0.0,0.0
2026-05-25 08:38:37.526601,1779712717.526601,2023459,-1834224,164212214,150305,127801,113888,61,0ca0fe00,0.0,0.0,0.0,0.0,0.0,0.0
2026-05-25 08:38:37.528044,1779712717.528044,2023459,-1834224,164212214,150305,127801,113888,61,0ca0fe00,0.0,0.0,0.0,0.0,0.0,0.0
2026-05-25 08:38:37.529163,1779712717.529163,2044456,-1745808,164275283,170965,108678,96286,61,0ca0fe00,0.0,0.0,0.0,0.0,0.0,0.0
2026-05-25 08:38:37.530561,1779712717.530561,2044456,-1745808,164275283,170965,108678,96286,61,0ca0fe00,0.0,0.0,0.0,0.0,0.0,0.0
2026-05-25 08:38:37.531668,1779712717.531668,2094458,-1680131,164242418,192337,76235,115292,61,0ca0fe00,0.0,0.0,0.0,0.0,0.0,0.0
2026-05-25 08:38:37.532720,1779712717.532720,2094458,-1680131,164242418,192337,76235,115292,61,0ca0fe00,0.0,0.0,0.0,0.0,0.0,0.0
2026-05-25 08:38:37.533453,1779712717.533453,2167632,-1584236,164244524,157461,34506,105757,61,0ca0fe00,0.0,0.0,0.0,0.0,0.0,0.0
2026-05-25 08:38:37.534370,1779712717.534370,2167632,-1584236,164244524,157461,34506,105757,61,0ca0fe00,0.0,0.0,0.0,0.0,0.0,0.0
2026-05-25 08:38:37.535089,1779712717.535089,2214192,-1531071,164268343,117288,37238,130357,61,0ca0fe00,0.0,0.0,0.0,0.0,0.0,0.0
2026-05-25 08:38:37.535997,1779712717.535997,2214192,-1531071,164268343,117288,37238,130357,61,0ca0fe00,0.0,0.0,0.0,0.0,0.0,0.0
2026-05-25 08:38:37.536715,1779712717.536715,2255474,-1552883,164264319,58806,27775,133482,61,0ca0fe00,0.0,0.0,0.0,0.0,0.0,0.0
2026-05-25 08:38:37.537516,1779712717.537516,2255474,-1552883,164264319,58806,27775,133482,61,0ca0fe00,0.0,0.0,0.0,0.0,0.0,0.0
2026-05-25 08:38:37.538235,1779712717.538235,2243883,-1631385,164303523,34188,19715,125339,61,0ca0fe00,0.0,0.0,0.0,0.0,0.0,0.0
2026-05-25 08:38:37.539188,1779712717.539188,2243883,-1631385,164303523,34188,19715,125339,61,0ca0fe00,0.0,0.0,0.0,0.0,0.0,0.0
2026-05-25 08:38:37.539937,1779712717.539937,2229982,-1779608,164293968,28077,12143,122245,61,0ca0fe00,0.0,0.0,0.0,0.0,0.0,0.0
2026-05-25 08:38:37.540897,1779712717.540897,2229982,-1779608,164293968,28077,12143,122245,61,0ca0fe00,0.0,0.0,0.0,0.0,0.0,0.0
2026-05-25 08:38:37.541642,1779712717.541642,2141439,-1958267,164404400,52802,41872,111583,61,0ca0fe00,0.0,0.0,0.0,0.0,0.0,0.0
2026-05-25 08:38:37.542566,1779712717.542566,2141439,-1958267,164404400,52802,41872,111583,61,0ca0fe00,0.0,0.0,0.0,0.0,0.0,0.0
2026-05-25 08:38:37.543288,1779712717.543288,2127452,-2008068,164371106,130801,53937,109433,61,0ca0fe00,0.0,0.0,0.0,0.0,0.0,0.0
2026-05-25 08:38:37.544221,1779712717.544221,2127452,-2008068,164371106,130801,53937,109433,61,0ca0fe00,0.0,0.0,0.0,0.0,0.0,0.0
2026-05-25 08:38:37.544962,1779712717.544962,2090279,-2060451,164446016,156141,83625,118200,61,0ca0fe00,0.0,0.0,0.0,0.0,0.0,0.0
2026-05-25 08:38:37.545920,1779712717.545920,2090279,-2060451,164446016,156141,83625,118200,61,0ca0fe00,0.0,0.0,0.0,0.0,0.0,0.0
2026-05-25 08:38:37.546849,1779712717.546849,2121176,-1897459,164319202,199534,75396,113862,61,0ca0fe00,0.0,0.0,0.0,0.0,0.0,0.0
2026-05-25 08:38:37.547782,1779712717.547782,2121176,-1897459,164319202,199534,75396,113862,61,0ca0fe00,0.0,0.0,0.0,0.0,0.0,0.0
2026-05-25 08:38:37.548522,1779712717.548522,2215111,-1860546,164427928,200965,94514,135275,61,0ca0fe00,0.0,0.0,0.0,0.0,0.0,0.0
2026-05-25 08:38:37.549452,1779712717.549452,2215111,-1860546,164427928,200965,94514,135275,61,0ca0fe00,0.0,0.0,0.0,0.0,0.0,0.0
2026-05-25 08:38:37.550191,1779712717.550191,2255417,-1576288,164279137,220885,93424,106162,61,0ca0fe00,0.0,0.0,0.0,0.0,0.0,0.0
2026-05-25 08:38:37.551120,1779712717.551120,2255417,-1576288,164279137,220885,93424,106162,61,0ca0fe00,0.0,0.0,0.0,0.0,0.0,0.0
2026-05-25 08:38:37.551867,1779712717.551867,2369421,-1582749,164341817,218373,124770,103806,61,0ca0fe00,0.0,0.0,0.0,0.0,0.0,0.0
2026-05-25 08:38:37.552782,1779712717.552782,2369421,-1582749,164341817,218373,124770,103806,61,0ca0fe00,0.0,0.0,0.0,0.0,0.0,0.0
2026-05-25 08:38:37.553505,1779712717.553505,2381202,-1400137,164314159,181598,136155,90258,61,0c9ffe00,0.0,0.0,0.0,0.0,0.0,0.0
2026-05-25 08:38:37.554430,1779712717.554430,2381202,-1400137,164314159,181598,136155,90258,61,0c9ffe00,0.0,0.0,0.0,0.0,0.0,0.0
2026-05-25 08:38:37.555135,1779712717.555135,2360846,-1531591,164342464,131614,157488,100168,61,0c9ffe00,0.0,0.0,0.0,0.0,0.0,0.0
2026-05-25 08:38:37.556035,1779712717.556035,2360846,-1531591,164342464,131614,157488,100168,61,0c9ffe00,0.0,0.0,0.0,0.0,0.0,0.0
2026-05-25 08:38:37.556760,1779712717.556760,2220684,-1515584,164258512,111173,149184,140274,61,0c9ffe00,0.0,0.0,0.0,0.0,0.0,0.0
2026-05-25 08:38:37.557671,1779712717.557671,2220684,-1515584,164258512,111173,149184,140274,61,0c9ffe00,0.0,0.0,0.0,0.0,0.0,0.0
2026-05-25 08:38:37.558387,1779712717.558387,2100861,-1656611,164187246,115890,132949,134849,61,0c9ffe00,0.0,0.0,0.0,0.0,0.0,0.0
2026-05-25 08:38:37.559293,1779712717.559293,2100861,-1656611,164187246,115890,132949,134849,61,0c9ffe00,0.0,0.0,0.0,0.0,0.0,0.0
2026-05-25 08:38:37.560014,1779712717.560014,1976780,-1656805,164167185,79172,96120,123064,61,0c9ffe00,0.0,0.0,0.0,0.0,0.0,0.0
2026-05-25 08:38:37.560910,1779712717.560910,1976780,-1656805,164167185,79172,96120,123064,61,0c9ffe00,0.0,0.0,0.0,0.0,0.0,0.0
2026-05-25 08:38:37.561620,1779712717.561620,2001181,-1754327,164202144,76140,48262,91890,61,0c9ffe00,0.0,0.0,0.0,0.0,0.0,0.0
2026-05-25 08:38:37.562532,1779712717.562532,2001181,-1754327,164202144,76140,48262,91890,61,0c9ffe00,0.0,0.0,0.0,0.0,0.0,0.0
2026-05-25 08:38:37.563249,1779712717.563249,2078720,-1767736,164364264,70991,42534,90771,61,0c9ffe00,0.0,0.0,0.0,0.0,0.0,0.0
2026-05-25 08:38:37.564155,1779712717.564155,2078720,-1767736,164364264,70991,42534,90771,61,0c9ffe00,0.0,0.0,0.0,0.0,0.0,0.0
2026-05-25 08:38:37.564861,1779712717.564861,2210296,-1825185,164318157,111034,46715,82434,61,0c9ffe00,0.0,0.0,0.0,0.0,0.0,0.0
2026-05-25 08:38:37.565770,1779712717.565770,2210296,-1825185,164318157,111034,46715,82434,61,0c9ffe00,0.0,0.0,0.0,0.0,0.0,0.0
2026-05-25 08:38:37.566488,1779712717.566488,2215274,-1767026,164361336,107908,70093,98044,61,0c9ffe00,0.0,0.0,0.0,0.0,0.0,0.0
2026-05-25 08:38:37.567393,1779712717.567393,2215274,-1767026,164361336,107908,70093,98044,61,0c9ffe00,0.0,0.0,0.0,0.0,0.0,0.0
2026-05-25 08:38:37.568083,1779712717.568083,2197291,-1746088,164109494,94482,78760,101887,61,0c9ffe00,0.0,0.0,0.0,0.0,0.0,0.0
2026-05-25 08:38:37.568963,1779712717.568963,2197291,-1746088,164109494,94482,78760,101887,61,0c9ffe00,0.0,0.0,0.0,0.0,0.0,0.0
2026-05-25 08:38:37.569655,1779712717.569655,2082758,-1648026,164305523,72264,60382,99656,61,0c9ffe00,0.0,0.0,0.0,0.0,0.0,0.0
2026-05-25 08:38:37.570533,1779712717.570533,2082758,-1648026,164305523,72264,60382,99656,61,0c9ffe00,0.0,0.0,0.0,0.0,0.0,0.0
2026-05-25 08:38:37.571226,1779712717.571226,2027595,-1558884,164031824,55453,29378,83458,61,0c9ffe00,0.0,0.0,0.0,0.0,0.0,0.0
2026-05-25 08:38:37.572104,1779712717.572104,2027595,-1558884,164031824,55453,29378,83458,61,0c9ffe00,0.0,0.0,0.0,0.0,0.0,0.0
2026-05-25 08:38:37.572700,1779712717.572700,1958513,-1578229,164212278,-5563,-70808,58425,61,0c9ffe00,0.0,0.0,0.0,0.0,0.0,0.0
2026-05-25 08:38:37.573533,1779712717.573533,1958513,-1578229,164212278,-5563,-70808,58425,61,0c9ffe00,0.0,0.0,0.0,0.0,0.0,0.0
2026-05-25 08:38:37.574275,1779712717.574275,2101202,-1751764,164192087,-13489,-54459,74770,61,0c9ffe00,0.0,0.0,0.0,0.0,0.0,0.0
2026-05-25 08:38:37.575188,1779712717.575188,2101202,-1751764,164192087,-13489,-54459,74770,61,0c9ffe00,0.0,0.0,0.0,0.0,0.0,0.0
2026-05-25 08:38:37.575907,1779712717.575907,2253497,-1832552,164492042,-10922,-131794,42464,61,0c9ffe00,0.0,0.0,0.0,0.0,0.0,0.0
2026-05-25 08:38:37.576813,1779712717.576813,2253497,-1832552,164492042,-10922,-131794,42464,61,0c9ffe00,0.0,0.0,0.0,0.0,0.0,0.0
2026-05-25 08:38:37.577524,1779712717.577524,2470470,-2109960,164539317,57017,-6570,135694,61,0c9ffe00,0.0,0.0,0.0,0.0,0.0,0.0
2026-05-25 08:38:37.583761,1779712717.583761,2342663,-1986493,164494604,105747,25653,114875,61,0c58fe00,0.0,0.0,0.0,0.0,0.0,0.0
2026-05-25 08:38:37.585104,1779712717.585104,2342663,-1986493,164494604,105747,25653,114875,61,0c58fe00,0.0,0.0,0.0,0.0,0.0,0.0
2026-05-25 08:38:37.592020,1779712717.592020,2335103,-2025418,164498088,164643,109347,107758,61,0c58fe00,0.0,0.0,0.0,0.0,0.0,0.0
2026-05-25 08:38:37.592889,1779712717.592889,2335103,-2025418,164498088,164643,109347,107758,61,0c58fe00,0.0,0.0,0.0,0.0,0.0,0.0
2026-05-25 08:38:37.593543,1779712717.593543,2283240,-1976673,164390096,213658,160611,95327,61,0c58fe00,0.0,0.0,0.0,0.0,0.0,0.0
2026-05-25 08:38:37.594341,1779712717.594341,2283240,-1976673,164390096,213658,160611,95327,61,0c58fe00,0.0,0.0,0.0,0.0,0.0,0.0
2026-05-25 08:38:37.595860,1779712717.595860,2168766,-1843354,164362196,239902,206391,86112,61,0c58fe00,0.0,0.0,0.0,0.0,0.0,0.0
2026-05-25 08:38:37.596726,1779712717.596726,2168766,-1843354,164362196,239902,206391,86112,61,0c58fe00,0.0,0.0,0.0,0.0,0.0,0.0
2026-05-25 08:38:37.597406,1779712717.597406,2029268,-1598376,164249982,240622,174999,83902,61,0c58fe00,0.0,0.0,0.0,0.0,0.0,0.0
2026-05-25 08:38:37.598328,1779712717.598328,2029268,-1598376,164249982,240622,174999,83902,61,0c58fe00,0.0,0.0,0.0,0.0,0.0,0.0
2026-05-25 08:38:37.599180,1779712717.599180,1990498,-1503267,164229702,248735,159581,83808,61,0c58fe00,0.0,0.0,0.0,0.0,0.0,0.0
2026-05-25 08:38:37.600035,1779712717.600035,1990498,-1503267,164229702,248735,159581,83808,61,0c58fe00,0.0,0.0,0.0,0.0,0.0,0.0
2026-05-25 08:38:37.600673,1779712717.600673,2048551,-1479767,164222163,210686,95366,69008,61,0c58fe00,0.0,0.0,0.0,0.0,0.0,0.0
2026-05-25 08:38:37.601442,1779712717.601442,2048551,-1479767,164222163,210686,95366,69008,61,0c58fe00,0.0,0.0,0.0,0.0,0.0,0.0
2026-05-25 08:38:37.602116,1779712717.602116,2224416,-1575736,164307036,186869,81585,69428,61,0c58fe00,0.0,0.0,0.0,0.0,0.0,0.0
2026-05-25 08:38:37.603149,1779712717.603149,2224416,-1575736,164307036,186869,81585,69428,61,0c58fe00,0.0,0.0,0.0,0.0,0.0,0.0
2026-05-25 08:38:37.603848,1779712717.603848,2327660,-1698978,164412614,145479,78027,91798,61,0c58fe00,0.0,0.0,0.0,0.0,0.0,0.0
2026-05-25 08:38:37.605138,1779712717.605138,2327660,-1698978,164412614,145479,78027,91798,61,0c58fe00,0.0,0.0,0.0,0.0,0.0,0.0
2026-05-25 08:38:37.606178,1779712717.606178,2359306,-1785308,164388602,114184,94591,112119,61,0c58fe00,0.0,0.0,0.0,0.0,0.0,0.0
2026-05-25 08:38:37.607470,1779712717.607470,2359306,-1785308,164388602,114184,94591,112119,61,0c58fe00,0.0,0.0,0.0,0.0,0.0,0.0
2026-05-25 08:38:37.608498,1779712717.608498,2255166,-1836500,164278644,105893,99400,123399,61,0c58fe00,0.0,0.0,0.0,0.0,0.0,0.0
2026-05-25 08:38:37.609711,1779712717.609711,2255166,-1836500,164278644,105893,99400,123399,61,0c58fe00,0.0,0.0,0.0,0.0,0.0,0.0
2026-05-25 08:38:37.610405,1779712717.610405,2134602,-1779389,164150339,101812,84635,109556,61,0c58fe00,0.0,0.0,0.0,0.0,0.0,0.0
2026-05-25 08:38:37.611276,1779712717.611276,2134602,-1779389,164150339,101812,84635,109556,61,0c58fe00,0.0,0.0,0.0,0.0,0.0,0.0
2026-05-25 08:38:37.611953,1779712717.611953,1925584,-1690402,164034621,62656,25880,76282,61,0c58fe00,0.0,0.0,0.0,0.0,0.0,0.0
2026-05-25 08:38:37.612819,1779712717.612819,1925584,-1690402,164034621,62656,25880,76282,61,0c58fe00,0.0,0.0,0.0,0.0,0.0,0.0
2026-05-25 08:38:37.613498,1779712717.613498,1843550,-1625678,164069416,-3041,-71873,52895,61,0c58fe00,0.0,0.0,0.0,0.0,0.0,0.0
2026-05-25 08:38:37.614385,1779712717.614385,1843550,-1625678,164069416,-3041,-71873,52895,61,0c58fe00,0.0,0.0,0.0,0.0,0.0,0.0
2026-05-25 08:38:37.614983,1779712717.614983,1904627,-1557019,164092943,-39625,-132652,51168,61,0c58fe00,0.0,0.0,0.0,0.0,0.0,0.0
2026-05-25 08:38:37.615798,1779712717.615798,1904627,-1557019,164092943,-39625,-132652,51168,61,0c58fe00,0.0,0.0,0.0,0.0,0.0,0.0
2026-05-25 08:38:37.616497,1779712717.616497,2003674,-1498413,164199664,-104717,-218918,20278,61,0c58fe00,0.0,0.0,0.0,0.0,0.0,0.0
2026-05-25 08:38:37.617398,1779712717.617398,2003674,-1498413,164199664,-104717,-218918,20278,61,0c58fe00,0.0,0.0,0.0,0.0,0.0,0.0
2026-05-25 08:38:37.618104,1779712717.618104,2167265,-1453340,164257163,-128926,-215094,35418,61,0c58fe00,0.0,0.0,0.0,0.0,0.0,0.0
2026-05-25 08:38:37.618997,1779712717.618997,2167265,-1453340,164257163,-128926,-215094,35418,61,0c58fe00,0.0,0.0,0.0,0.0,0.0,0.0
2026-05-25 08:38:37.619713,1779712717.619713,2232442,-1485851,164307173,-161163,-259733,11370,61,0c58fe00,0.0,0.0,0.0,0.0,0.0,0.0
2026-05-25 08:38:37.620613,1779712717.620613,2232442,-1485851,164307173,-161163,-259733,11370,61,0c58fe00,0.0,0.0,0.0,0.0,0.0,0.0
2026-05-25 08:38:37.621324,1779712717.621324,2351222,-1644685,164487688,-145965,-265187,11782,61,0c58fe00,0.0,0.0,0.0,0.0,0.0,0.0
2026-05-25 08:38:37.622224,1779712717.622224,2351222,-1644685,164487688,-145965,-265187,11782,61,0c58fe00,0.0,0.0,0.0,0.0,0.0,0.0
2026-05-25 08:38:37.622935,1779712717.622935,2413391,-1891099,164512843,-101895,-224209,25957,61,0c58fe00,0.0,0.0,0.0,0.0,0.0,0.0
2026-05-25 08:38:37.623825,1779712717.623825,2413391,-1891099,164512843,-101895,-224209,25957,61,0c58fe00,0.0,0.0,0.0,0.0,0.0,0.0
2026-05-25 08:38:37.624883,1779712717.624883,2496603,-2069531,164626972,-24957,-134073,62552,61,0c58fe00,0.0,0.0,0.0,0.0,0.0,0.0
2026-05-25 08:38:37.625784,1779712717.625784,2496603,-2069531,164626972,-24957,-134073,62552,61,0c58fe00,0.0,0.0,0.0,0.0,0.0,0.0
2026-05-25 08:38:37.626488,1779712717.626488,2488830,-2120452,164546532,-7718,3961,110447,61,0c58fe00,0.0,0.0,0.0,0.0,0.0,0.0
2026-05-25 08:38:37.627384,1779712717.627384,2488830,-2120452,164546532,-7718,3961,110447,61,0c58fe00,0.0,0.0,0.0,0.0,0.0,0.0
2026-05-25 08:38:37.628674,1779712717.628674,2345976,-2002636,164433573,22864,50668,139772,61,0c57fe00,0.0,0.0,0.0,0.0,0.0,0.0
2026-05-25 08:38:37.629565,1779712717.629565,2345976,-2002636,164433573,22864,50668,139772,61,0c57fe00,0.0,0.0,0.0,0.0,0.0,0.0
2026-05-25 08:38:37.630282,1779712717.630282,2148071,-1752043,164315861,-14689,59074,144557,61,0c57fe00,0.0,0.0,0.0,0.0,0.0,0.0
2026-05-25 08:38:37.631190,1779712717.631190,2148071,-1752043,164315861,-14689,59074,144557,61,0c57fe00,0.0,0.0,0.0,0.0,0.0,0.0
2026-05-25 08:38:37.632643,1779712717.632643,1910104,-1510724,164128279,-2208,-8436,110990,61,0c57fe00,0.0,0.0,0.0,0.0,0.0,0.0
2026-05-25 08:38:37.633532,1779712717.633532,1910104,-1510724,164128279,-2208,-8436,110990,61,0c57fe00,0.0,0.0,0.0,0.0,0.0,0.0
2026-05-25 08:38:37.634227,1779712717.634227,1986730,-1481579,164198264,-15374,-49710,70581,61,0c57fe00,0.0,0.0,0.0,0.0,0.0,0.0
2026-05-25 08:38:37.635103,1779712717.635103,1986730,-1481579,164198264,-15374,-49710,70581,61,0c57fe00,0.0,0.0,0.0,0.0,0.0,0.0
2026-05-25 08:38:37.636255,1779712717.636255,2074471,-1579708,164275243,-26540,-82163,74220,61,0c57fe00,0.0,0.0,0.0,0.0,0.0,0.0
2026-05-25 08:38:37.637104,1779712717.637104,2074471,-1579708,164275243,-26540,-82163,74220,61,0c57fe00,0.0,0.0,0.0,0.0,0.0,0.0
2026-05-25 08:38:37.637820,1779712717.637820,2299314,-1690127,164334653,-38892,-83258,94489,61,0c57fe00,0.0,0.0,0.0,0.0,0.0,0.0
2026-05-25 08:38:37.638730,1779712717.638730,2299314,-1690127,164334653,-38892,-83258,94489,61,0c57fe00,0.0,0.0,0.0,0.0,0.0,0.0
2026-05-25 08:38:37.640043,1779712717.640043,2303370,-1756991,164457453,-33883,-61540,123461,61,0c57fe00,0.0,0.0,0.0,0.0,0.0,0.0
2026-05-25 08:38:37.640971,1779712717.640971,2303370,-1756991,164457453,-33883,-61540,123461,61,0c57fe00,0.0,0.0,0.0,0.0,0.0,0.0
2026-05-25 08:38:37.641691,1779712717.641691,2392179,-1814669,164475803,4794,-28511,127669,61,0c57fe00,0.0,0.0,0.0,0.0,0.0,0.0
2026-05-25 08:38:37.642621,1779712717.642621,2392179,-1814669,164475803,4794,-28511,127669,61,0c57fe00,0.0,0.0,0.0,0.0,0.0,0.0
2026-05-25 08:38:37.644116,1779712717.644116,2386745,-1893391,164624074,37133,30064,108934,61,0c57fe00,0.0,0.0,0.0,0.0,0.0,0.0
2026-05-25 08:38:37.645043,1779712717.645043,2386745,-1893391,164624074,37133,30064,108934,61,0c57fe00,0.0,0.0,0.0,0.0,0.0,0.0
2026-05-25 08:38:37.645761,1779712717.645761,2468991,-1868442,164476331,64320,91121,126167,61,0c57fe00,0.0,0.0,0.0,0.0,0.0,0.0
2026-05-25 08:38:37.646682,1779712717.646682,2468991,-1868442,164476331,64320,91121,126167,61,0c57fe00,0.0,0.0,0.0,0.0,0.0,0.0
2026-05-25 08:38:37.647799,1779712717.647799,2295451,-1801919,164451353,56411,123045,109217,61,0c57fe00,0.0,0.0,0.0,0.0,0.0,0.0
2026-05-25 08:38:37.648726,1779712717.648726,2295451,-1801919,164451353,56411,123045,109217,61,0c57fe00,0.0,0.0,0.0,0.0,0.0,0.0
2026-05-25 08:38:37.649456,1779712717.649456,2110168,-1699693,164318668,89204,129857,98026,61,0c57fe00,0.0,0.0,0.0,0.0,0.0,0.0
2026-05-25 08:38:37.650378,1779712717.650378,2110168,-1699693,164318668,89204,129857,98026,61,0c57fe00,0.0,0.0,0.0,0.0,0.0,0.0
2026-05-25 08:38:37.651474,1779712717.651474,1852635,-1665007,164158477,106162,108409,86805,61,0c57fe00,0.0,0.0,0.0,0.0,0.0,0.0
2026-05-25 08:38:37.652395,1779712717.652395,1852635,-1665007,164158477,106162,108409,86805,61,0c57fe00,0.0,0.0,0.0,0.0,0.0,0.0
2026-05-25 08:38:37.655027,1779712717.655027,1800341,-1642377,164051693,120793,45072,88498,61,0c57fe00,0.0,0.0,0.0,0.0,0.0,0.0
2026-05-25 08:38:37.659629,1779712717.659629,1800341,-1642377,164051693,120793,45072,88498,61,0c57fe00,0.0,0.0,0.0,0.0,0.0,0.0
2026-05-25 08:38:37.660382,1779712717.660382,1805340,-1685392,163977760,72651,-37396,86214,61,0c57fe00,0.0,0.0,0.0,0.0,0.0,0.0
2026-05-25 08:38:37.661340,1779712717.661340,1805340,-1685392,163977760,72651,-37396,86214,61,0c57fe00,0.0,0.0,0.0,0.0,0.0,0.0
2026-05-25 08:38:37.665392,1779712717.665392,1850227,-1736190,164098129,8132,-122455,73762,61,0c57fe00,0.0,0.0,0.0,0.0,0.0,0.0
2026-05-25 08:38:37.666351,1779712717.666351,1850227,-1736190,164098129,8132,-122455,73762,61,0c57fe00,0.0,0.0,0.0,0.0,0.0,0.0
2026-05-25 08:38:37.727960,1779712717.727960,1850453,-1858001,164127361,-45127,-171575,76485,61,0c57fe00,0.0,0.0,0.0,0.0,0.0,0.0
2026-05-25 08:38:37.728947,1779712717.728947,1850453,-1858001,164127361,-45127,-171575,76485,61,0c57fe00,0.0,0.0,0.0,0.0,0.0,0.0
2026-05-25 08:38:37.729953,1779712717.729953,1956148,-1820778,164228462,-89185,-226205,59269,61,0c57fe00,0.0,0.0,0.0,0.0,0.0,0.0
2026-05-25 08:38:37.730931,1779712717.730931,1956148,-1820778,164228462,-89185,-226205,59269,61,0c57fe00,0.0,0.0,0.0,0.0,0.0,0.0
2026-05-25 08:38:37.732332,1779712717.732332,2130085,-1814993,164345547,-76639,-241614,39559,61,0c57fe00,0.0,0.0,0.0,0.0,0.0,0.0
2026-05-25 08:38:37.733331,1779712717.733331,2130085,-1814993,164345547,-76639,-241614,39559,61,0c57fe00,0.0,0.0,0.0,0.0,0.0,0.0
2026-05-25 08:38:37.734099,1779712717.734099,2364192,-1655977,164464414,-33432,-245994,37495,61,0c57fe00,0.0,0.0,0.0,0.0,0.0,0.0
2026-05-25 08:38:37.735053,1779712717.735053,2364192,-1655977,164464414,-33432,-245994,37495,61,0c57fe00,0.0,0.0,0.0,0.0,0.0,0.0
2026-05-25 08:38:37.736456,1779712717.736456,2573278,-1605256,164609640,34589,-168414,63595,61,0c57fe00,0.0,0.0,0.0,0.0,0.0,0.0
2026-05-25 08:38:37.737425,1779712717.737425,2573278,-1605256,164609640,34589,-168414,63595,61,0c57fe00,0.0,0.0,0.0,0.0,0.0,0.0
2026-05-25 08:38:37.738188,1779712717.738188,2727815,-1544109,164565172,80745,-77769,101027,61,0c56fe00,0.0,0.0,0.0,0.0,0.0,0.0
2026-05-25 08:38:37.739160,1779712717.739160,2727815,-1544109,164565172,80745,-77769,101027,61,0c56fe00,0.0,0.0,0.0,0.0,0.0,0.0
2026-05-25 08:38:37.740744,1779712717.740744,2667208,-1559133,164462887,67327,20215,119089,61,0c56fe00,0.0,0.0,0.0,0.0,0.0,0.0
2026-05-25 08:38:37.741683,1779712717.741683,2667208,-1559133,164462887,67327,20215,119089,61,0c56fe00,0.0,0.0,0.0,0.0,0.0,0.0
2026-05-25 08:38:37.742380,1779712717.742380,2466085,-1558770,164290767,56003,49104,110319,61,0c56fe00,0.0,0.0,0.0,0.0,0.0,0.0
2026-05-25 08:38:37.743333,1779712717.743333,2466085,-1558770,164290767,56003,49104,110319,61,0c56fe00,0.0,0.0,0.0,0.0,0.0,0.0
2026-05-25 08:38:37.744522,1779712717.744522,2141476,-1584775,164161271,24326,55852,97502,61,0c57fe00,0.0,0.0,0.0,0.0,0.0,0.0
2026-05-25 08:38:37.745506,1779712717.745506,2141476,-1584775,164161271,24326,55852,97502,61,0c57fe00,0.0,0.0,0.0,0.0,0.0,0.0
2026-05-25 08:38:37.746259,1779712717.746259,1907277,-1659648,164125216,2088,-1934,72631,61,0c57fe00,0.0,0.0,0.0,0.0,0.0,0.0
2026-05-25 08:38:37.747232,1779712717.747232,1907277,-1659648,164125216,2088,-1934,72631,61,0c57fe00,0.0,0.0,0.0,0.0,0.0,0.0
2026-05-25 08:38:37.748409,1779712717.748409,1854882,-1734817,164086515,-5452,-60601,73084,61,0c56fe00,0.0,0.0,0.0,0.0,0.0,0.0
2026-05-25 08:38:37.749399,1779712717.749399,1854882,-1734817,164086515,-5452,-60601,73084,61,0c56fe00,0.0,0.0,0.0,0.0,0.0,0.0
2026-05-25 08:38:37.750196,1779712717.750196,1980537,-1795058,164198410,-24731,-124418,63110,61,0c56fe00,0.0,0.0,0.0,0.0,0.0,0.0
2026-05-25 08:38:37.751189,1779712717.751189,1980537,-1795058,164198410,-24731,-124418,63110,61,0c56fe00,0.0,0.0,0.0,0.0,0.0,0.0
2026-05-25 08:38:37.752589,1779712717.752589,2214921,-1760086,164230854,-57593,-142917,72588,61,0c56fe00,0.0,0.0,0.0,0.0,0.0,0.0
2026-05-25 08:38:37.753546,1779712717.753546,2214921,-1760086,164230854,-57593,-142917,72588,61,0c56fe00,0.0,0.0,0.0,0.0,0.0,0.0
2026-05-25 08:38:37.754301,1779712717.754301,2355133,-1810660,164551065,-45132,-103002,71440,61,0c56fe00,0.0,0.0,0.0,0.0,0.0,0.0
2026-05-25 08:38:37.755260,1779712717.755260,2355133,-1810660,164551065,-45132,-103002,71440,61,0c56fe00,0.0,0.0,0.0,0.0,0.0,0.0
2026-05-25 08:38:37.756412,1779712717.756412,2487098,-1735242,164483808,44588,-40835,92866,61,0c55fe00,0.0,0.0,0.0,0.0,0.0,0.0
2026-05-25 08:38:37.757367,1779712717.757367,2487098,-1735242,164483808,44588,-40835,92866,61,0c55fe00,0.0,0.0,0.0,0.0,0.0,0.0
2026-05-25 08:38:37.758109,1779712717.758109,2483862,-1751150,164568199,114782,36718,107735,61,0c56fe00,0.0,0.0,0.0,0.0,0.0,0.0
2026-05-25 08:38:37.759034,1779712717.759034,2483862,-1751150,164568199,114782,36718,107735,61,0c56fe00,0.0,0.0,0.0,0.0,0.0,0.0
2026-05-25 08:38:37.760156,1779712717.760156,2332246,-1679025,164165694,133542,77311,100790,61,0c56fe00,0.0,0.0,0.0,0.0,0.0,0.0
2026-05-25 08:38:37.761116,1779712717.761116,2332246,-1679025,164165694,133542,77311,100790,61,0c56fe00,0.0,0.0,0.0,0.0,0.0,0.0
2026-05-25 08:38:37.761868,1779712717.761868,2040199,-1766435,164151058,71513,46439,111247,61,0c56fe00,0.0,0.0,0.0,0.0,0.0,0.0
2026-05-25 08:38:37.762817,1779712717.762817,2040199,-1766435,164151058,71513,46439,111247,61,0c56fe00,0.0,0.0,0.0,0.0,0.0,0.0
2026-05-25 08:38:37.763748,1779712717.763748,1801213,-1739342,164041407,51622,-20683,64963,61,0c55fe00,0.0,0.0,0.0,0.0,0.0,0.0
2026-05-25 08:38:37.764674,1779712717.764674,1801213,-1739342,164041407,51622,-20683,64963,61,0c55fe00,0.0,0.0,0.0,0.0,0.0,0.0
2026-05-25 08:38:37.765426,1779712717.765426,1735510,-1872370,164094619,30181,-104393,62495,61,0c55fe00,0.0,0.0,0.0,0.0,0.0,0.0
2026-05-25 08:38:37.766379,1779712717.766379,1735510,-1872370,164094619,30181,-104393,62495,61,0c55fe00,0.0,0.0,0.0,0.0,0.0,0.0
2026-05-25 08:38:37.767133,1779712717.767133,1906307,-1817728,164122122,8777,-149089,51526,61,0c55fe00,0.0,0.0,0.0,0.0,0.0,0.0
2026-05-25 08:38:37.768089,1779712717.768089,1906307,-1817728,164122122,8777,-149089,51526,61,0c55fe00,0.0,0.0,0.0,0.0,0.0,0.0
2026-05-25 08:38:37.768846,1779712717.768846,2149312,-1941775,164279177,-36306,-166620,67031,61,0c55fe00,0.0,0.0,0.0,0.0,0.0,0.0
2026-05-25 08:38:37.769801,1779712717.769801,2149312,-1941775,164279177,-36306,-166620,67031,61,0c55fe00,0.0,0.0,0.0,0.0,0.0,0.0
2026-05-25 08:38:37.770614,1779712717.770614,2381153,-1901054,164427296,-21323,-122140,63524,61,0c55fe00,0.0,0.0,0.0,0.0,0.0,0.0
2026-05-25 08:38:37.771575,1779712717.771575,2381153,-1901054,164427296,-21323,-122140,63524,61,0c55fe00,0.0,0.0,0.0,0.0,0.0,0.0
2026-05-25 08:38:37.772307,1779712717.772307,2485698,-1896461,164431336,30080,-91001,94887,61,0c55fe00,0.0,0.0,0.0,0.0,0.0,0.0
2026-05-25 08:38:37.773213,1779712717.773213,2485698,-1896461,164431336,30080,-91001,94887,61,0c55fe00,0.0,0.0,0.0,0.0,0.0,0.0
2026-05-25 08:38:37.773933,1779712717.773933,2499261,-1697481,164391356,83270,-31150,95640,61,0c55fe00,0.0,0.0,0.0,0.0,0.0,0.0
2026-05-25 08:38:37.774867,1779712717.774867,2499261,-1697481,164391356,83270,-31150,95640,61,0c55fe00,0.0,0.0,0.0,0.0,0.0,0.0
2026-05-25 08:38:37.775597,1779712717.775597,2363403,-1594727,164238528,94037,17517,100990,61,0c55fe00,0.0,0.0,0.0,0.0,0.0,0.0
2026-05-25 08:38:37.776510,1779712717.776510,2363403,-1594727,164238528,94037,17517,100990,61,0c55fe00,0.0,0.0,0.0,0.0,0.0,0.0
2026-05-25 08:38:37.777218,1779712717.777218,2182765,-1477050,164206884,91576,33973,99155,61,0c55fe00,0.0,0.0,0.0,0.0,0.0,0.0
2026-05-25 08:38:37.778116,1779712717.778116,2182765,-1477050,164206884,91576,33973,99155,61,0c55fe00,0.0,0.0,0.0,0.0,0.0,0.0
2026-05-25 08:38:37.778886,1779712717.778886,1991871,-1501125,164105213,73368,18873,83022,61,0c55fe00,0.0,0.0,0.0,0.0,0.0,0.0
2026-05-25 08:38:37.779808,1779712717.779808,1991871,-1501125,164105213,73368,18873,83022,61,0c55fe00,0.0,0.0,0.0,0.0,0.0,0.0
2026-05-25 08:38:37.780533,1779712717.780533,1929376,-1532755,164129891,33848,-53172,68805,61,0c55fe00,0.0,0.0,0.0,0.0,0.0,0.0
2026-05-25 08:38:37.781464,1779712717.781464,1929376,-1532755,164129891,33848,-53172,68805,61,0c55fe00,0.0,0.0,0.0,0.0,0.0,0.0
2026-05-25 08:38:37.782177,1779712717.782177,1997945,-1653122,164130828,3292,-113784,61619,61,0c55fe00,0.0,0.0,0.0,0.0,0.0,0.0
2026-05-25 08:38:37.783110,1779712717.783110,1997945,-1653122,164130828,3292,-113784,61619,61,0c55fe00,0.0,0.0,0.0,0.0,0.0,0.0
2026-05-25 08:38:37.783822,1779712717.783822,2153580,-1785498,164252510,-44059,-133035,41753,61,0c55fe00,0.0,0.0,0.0,0.0,0.0,0.0
2026-05-25 08:38:37.784726,1779712717.784726,2153580,-1785498,164252510,-44059,-133035,41753,61,0c55fe00,0.0,0.0,0.0,0.0,0.0,0.0
2026-05-25 08:38:37.785457,1779712717.785457,2312062,-1840020,164380887,-60620,-151629,44303,61,0c55fe00,0.0,0.0,0.0,0.0,0.0,0.0
2026-05-25 08:38:37.786375,1779712717.786375,2312062,-1840020,164380887,-60620,-151629,44303,61,0c55fe00,0.0,0.0,0.0,0.0,0.0,0.0
2026-05-25 08:38:37.787144,1779712717.787144,2425285,-1909022,164491061,-33022,-98187,46380,61,0c55fe00,0.0,0.0,0.0,0.0,0.0,0.0
2026-05-25 08:38:37.788052,1779712717.788052,2425285,-1909022,164491061,-33022,-98187,46380,61,0c55fe00,0.0,0.0,0.0,0.0,0.0,0.0
2026-05-25 08:38:37.788757,1779712717.788757,2403070,-1878748,164507858,27827,-32264,91104,61,0c55fe00,0.0,0.0,0.0,0.0,0.0,0.0
2026-05-25 08:38:37.789633,1779712717.789633,2403070,-1878748,164507858,27827,-32264,91104,61,0c55fe00,0.0,0.0,0.0,0.0,0.0,0.0
2026-05-25 08:38:37.790327,1779712717.790327,2289840,-1829271,164382274,74699,33212,104894,61,0c55fe00,0.0,0.0,0.0,0.0,0.0,0.0
2026-05-25 08:38:37.791205,1779712717.791205,2289840,-1829271,164382274,74699,33212,104894,61,0c55fe00,0.0,0.0,0.0,0.0,0.0,0.0
2026-05-25 08:38:37.791893,1779712717.791893,2108211,-1694932,164209825,96640,69407,104061,61,0c55fe00,0.0,0.0,0.0,0.0,0.0,0.0
2026-05-25 08:38:37.792769,1779712717.792769,2108211,-1694932,164209825,96640,69407,104061,61,0c55fe00,0.0,0.0,0.0,0.0,0.0,0.0
2026-05-25 08:38:37.793470,1779712717.793470,2000292,-1593647,164076508,58552,31717,96611,61,0c54fe00,0.0,0.0,0.0,0.0,0.0,0.0
2026-05-25 08:38:37.794350,1779712717.794350,2000292,-1593647,164076508,58552,31717,96611,61,0c54fe00,0.0,0.0,0.0,0.0,0.0,0.0
2026-05-25 08:38:37.795223,1779712717.795223,1923207,-1555033,164080489,29855,-29994,79306,61,0c55fe00,0.0,0.0,0.0,0.0,0.0,0.0
2026-05-25 08:38:37.796106,1779712717.796106,1923207,-1555033,164080489,29855,-29994,79306,61,0c55fe00,0.0,0.0,0.0,0.0,0.0,0.0
2026-05-25 08:38:37.796800,1779712717.796800,1968507,-1591178,164107410,23504,-101231,59090,61,0c55fe00,0.0,0.0,0.0,0.0,0.0,0.0
2026-05-25 08:38:37.797684,1779712717.797684,1968507,-1591178,164107410,23504,-101231,59090,61,0c55fe00,0.0,0.0,0.0,0.0,0.0,0.0
2026-05-25 08:38:37.798376,1779712717.798376,2042857,-1629189,164205488,-800,-135435,46929,61,0c55fe00,0.0,0.0,0.0,0.0,0.0,0.0
2026-05-25 08:38:37.799260,1779712717.799260,2042857,-1629189,164205488,-800,-135435,46929,61,0c55fe00,0.0,0.0,0.0,0.0,0.0,0.0
2026-05-25 08:38:37.799954,1779712717.799954,2194046,-1710863,164238098,-21680,-147535,66281,61,0c54fe00,0.0,0.0,0.0,0.0,0.0,0.0
2026-05-25 08:38:37.800839,1779712717.800839,2194046,-1710863,164238098,-21680,-147535,66281,61,0c54fe00,0.0,0.0,0.0,0.0,0.0,0.0
2026-05-25 08:38:37.801534,1779712717.801534,2307152,-1810036,164296055,-48095,-108485,89889,61,0c54fe00,0.0,0.0,0.0,0.0,0.0,0.0
2026-05-25 08:38:37.802419,1779712717.802419,2307152,-1810036,164296055,-48095,-108485,89889,61,0c54fe00,0.0,0.0,0.0,0.0,0.0,0.0
2026-05-25 08:38:37.803549,1779712717.803549,2337830,-1919473,164328189,-20307,-99441,102103,61,0c54fe00,0.0,0.0,0.0,0.0,0.0,0.0
2026-05-25 08:38:37.804455,1779712717.804455,2337830,-1919473,164328189,-20307,-99441,102103,61,0c54fe00,0.0,0.0,0.0,0.0,0.0,0.0
2026-05-25 08:38:37.805172,1779712717.805172,2307100,-1931236,164349984,17216,-53662,118447,61,0c54fe00,0.0,0.0,0.0,0.0,0.0,0.0
2026-05-25 08:38:37.806084,1779712717.806084,2307100,-1931236,164349984,17216,-53662,118447,61,0c54fe00,0.0,0.0,0.0,0.0,0.0,0.0
2026-05-25 08:38:37.806788,1779712717.806788,2267416,-1869208,164369954,71309,-39643,92953,61,0c54fe00,0.0,0.0,0.0,0.0,0.0,0.0
2026-05-25 08:38:37.807695,1779712717.807695,2267416,-1869208,164369954,71309,-39643,92953,61,0c54fe00,0.0,0.0,0.0,0.0,0.0,0.0
2026-05-25 08:38:37.808383,1779712717.808383,2246612,-1777489,164354114,75875,-11626,79996,61,0c54fe00,0.0,0.0,0.0,0.0,0.0,0.0
2026-05-25 08:38:37.809264,1779712717.809264,2246612,-1777489,164354114,75875,-11626,79996,61,0c54fe00,0.0,0.0,0.0,0.0,0.0,0.0
2026-05-25 08:38:37.809942,1779712717.809942,2245414,-1712517,164350216,51641,-404,81188,61,0c54fe00,0.0,0.0,0.0,0.0,0.0,0.0
2026-05-25 08:38:37.810826,1779712717.810826,2245414,-1712517,164350216,51641,-404,81188,61,0c54fe00,0.0,0.0,0.0,0.0,0.0,0.0
2026-05-25 08:38:37.811582,1779712717.811582,2185255,-1660960,164314582,39380,27389,100261,61,0c54fe00,0.0,0.0,0.0,0.0,0.0,0.0
2026-05-25 08:38:37.812466,1779712717.812466,2185255,-1660960,164314582,39380,27389,100261,61,0c54fe00,0.0,0.0,0.0,0.0,0.0,0.0
2026-05-25 08:38:37.813611,1779712717.813611,2136438,-1619056,164278621,41384,44286,119639,61,0c54fe00,0.0,0.0,0.0,0.0,0.0,0.0
2026-05-25 08:38:37.814532,1779712717.814532,2136438,-1619056,164278621,41384,44286,119639,61,0c54fe00,0.0,0.0,0.0,0.0,0.0,0.0
2026-05-25 08:38:37.815257,1779712717.815257,2096757,-1636619,164196137,54953,18584,82878,61,0c54fe00,0.0,0.0,0.0,0.0,0.0,0.0
2026-05-25 08:38:37.816160,1779712717.816160,2096757,-1636619,164196137,54953,18584,82878,61,0c54fe00,0.0,0.0,0.0,0.0,0.0,0.0
2026-05-25 08:38:37.816853,1779712717.816853,2034909,-1681188,164182992,41234,-11057,75099,61,0c54fe00,0.0,0.0,0.0,0.0,0.0,0.0
2026-05-25 08:38:37.817731,1779712717.817731,2034909,-1681188,164182992,41234,-11057,75099,61,0c54fe00,0.0,0.0,0.0,0.0,0.0,0.0
2026-05-25 08:38:37.818416,1779712717.818416,2081341,-1741812,164186928,25230,-51147,61307,61,0c54fe00,0.0,0.0,0.0,0.0,0.0,0.0
2026-05-25 08:38:37.819300,1779712717.819300,2081341,-1741812,164186928,25230,-51147,61307,61,0c54fe00,0.0,0.0,0.0,0.0,0.0,0.0
2026-05-25 08:38:37.819986,1779712717.819986,2141238,-1826638,164250967,25522,-70724,57520,61,0c54fe00,0.0,0.0,0.0,0.0,0.0,0.0
2026-05-25 08:38:37.820866,1779712717.820866,2141238,-1826638,164250967,25522,-70724,57520,61,0c54fe00,0.0,0.0,0.0,0.0,0.0,0.0
2026-05-25 08:38:37.821553,1779712717.821553,2262872,-1831150,164317893,40936,-57658,56828,61,0c54fe00,0.0,0.0,0.0,0.0,0.0,0.0
2026-05-25 08:38:37.822418,1779712717.822418,2262872,-1831150,164317893,40936,-57658,56828,61,0c54fe00,0.0,0.0,0.0,0.0,0.0,0.0
2026-05-25 08:38:37.823080,1779712717.823080,2305790,-1824037,164370610,39918,-48221,64604,61,0c54fe00,0.0,0.0,0.0,0.0,0.0,0.0
2026-05-25 08:38:37.823950,1779712717.823950,2305790,-1824037,164370610,39918,-48221,64604,61,0c54fe00,0.0,0.0,0.0,0.0,0.0,0.0
2026-05-25 08:38:37.824646,1779712717.824646,2282488,-1751965,164311909,33086,-21753,89325,61,0c53fe00,0.0,0.0,0.0,0.0,0.0,0.0
2026-05-25 08:38:37.825495,1779712717.825495,2282488,-1751965,164311909,33086,-21753,89325,61,0c53fe00,0.0,0.0,0.0,0.0,0.0,0.0
2026-05-25 08:38:37.826161,1779712717.826161,2261859,-1704324,164324953,36045,-29339,73111,61,0c53fe00,0.0,0.0,0.0,0.0,0.0,0.0
2026-05-25 08:38:37.827075,1779712717.827075,2261859,-1704324,164324953,36045,-29339,73111,61,0c53fe00,0.0,0.0,0.0,0.0,0.0,0.0
2026-05-25 08:38:37.827732,1779712717.827732,2265732,-1641354,164280970,45392,-18661,64157,61,0c53fe00,0.0,0.0,0.0,0.0,0.0,0.0
2026-05-25 08:38:37.828613,1779712717.828613,2265732,-1641354,164280970,45392,-18661,64157,61,0c53fe00,0.0,0.0,0.0,0.0,0.0,0.0
2026-05-25 08:38:37.829307,1779712717.829307,2213116,-1667726,164307122,45007,-37531,69222,61,0c53fe00,0.0,0.0,0.0,0.0,0.0,0.0
2026-05-25 08:38:37.830190,1779712717.830190,2213116,-1667726,164307122,45007,-37531,69222,61,0c53fe00,0.0,0.0,0.0,0.0,0.0,0.0
2026-05-25 08:38:37.830881,1779712717.830881,2122775,-1636901,164274112,2780,-24953,79720,61,0c53fe00,0.0,0.0,0.0,0.0,0.0,0.0
2026-05-25 08:38:37.831729,1779712717.831729,2122775,-1636901,164274112,2780,-24953,79720,61,0c53fe00,0.0,0.0,0.0,0.0,0.0,0.0
2026-05-25 08:38:37.832398,1779712717.832398,1970020,-1603178,164183711,-28842,-46594,101005,61,0c53fe00,0.0,0.0,0.0,0.0,0.0,0.0
2026-05-25 08:38:37.833252,1779712717.833252,1970020,-1603178,164183711,-28842,-46594,101005,61,0c53fe00,0.0,0.0,0.0,0.0,0.0,0.0
2026-05-25 08:38:37.833931,1779712717.833931,1891028,-1538753,164149706,-43529,-86475,73021,61,0c54fe00,0.0,0.0,0.0,0.0,0.0,0.0
2026-05-25 08:38:37.834799,1779712717.834799,1891028,-1538753,164149706,-43529,-86475,73021,61,0c54fe00,0.0,0.0,0.0,0.0,0.0,0.0
2026-05-25 08:38:37.835494,1779712717.835494,1929957,-1586998,164223243,-34332,-155137,50953,61,0c53fe00,0.0,0.0,0.0,0.0,0.0,0.0
2026-05-25 08:38:37.836367,1779712717.836367,1929957,-1586998,164223243,-34332,-155137,50953,61,0c53fe00,0.0,0.0,0.0,0.0,0.0,0.0
2026-05-25 08:38:37.837042,1779712717.837042,2137489,-1736247,164396039,7642,-152146,39130,61,0c53fe00,0.0,0.0,0.0,0.0,0.0,0.0
2026-05-25 08:38:37.837943,1779712717.837943,2137489,-1736247,164396039,7642,-152146,39130,61,0c53fe00,0.0,0.0,0.0,0.0,0.0,0.0
2026-05-25 08:38:37.838644,1779712717.838644,2383631,-1924665,164554460,32588,-104191,71172,61,0c53fe00,0.0,0.0,0.0,0.0,0.0,0.0
2026-05-25 08:38:37.839518,1779712717.839518,2383631,-1924665,164554460,32588,-104191,71172,61,0c53fe00,0.0,0.0,0.0,0.0,0.0,0.0
2026-05-25 08:38:37.840201,1779712717.840201,2506153,-1914110,164559934,48417,-17300,104541,61,0c53fe00,0.0,0.0,0.0,0.0,0.0,0.0
2026-05-25 08:38:37.841066,1779712717.841066,2506153,-1914110,164559934,48417,-17300,104541,61,0c53fe00,0.0,0.0,0.0,0.0,0.0,0.0
2026-05-25 08:38:37.841752,1779712717.841752,2395299,-1787411,164415095,43423,28757,119031,61,0c53fe00,0.0,0.0,0.0,0.0,0.0,0.0
2026-05-25 08:38:37.842635,1779712717.842635,2395299,-1787411,164415095,43423,28757,119031,61,0c53fe00,0.0,0.0,0.0,0.0,0.0,0.0
2026-05-25 08:38:37.843300,1779712717.843300,2104973,-1543115,164192751,4480,14128,120218,61,0c53fe00,0.0,0.0,0.0,0.0,0.0,0.0
2026-05-25 08:38:37.844139,1779712717.844139,2104973,-1543115,164192751,4480,14128,120218,61,0c53fe00,0.0,0.0,0.0,0.0,0.0,0.0
2026-05-25 08:38:37.844800,1779712717.844800,1874052,-1429944,164105659,-34707,-62530,65761,61,0c53fe00,0.0,0.0,0.0,0.0,0.0,0.0
2026-05-25 08:38:37.845659,1779712717.845659,1874052,-1429944,164105659,-34707,-62530,65761,61,0c53fe00,0.0,0.0,0.0,0.0,0.0,0.0
2026-05-25 08:38:37.846343,1779712717.846343,1873756,-1422825,164165640,-37954,-138173,43395,61,0c53fe00,0.0,0.0,0.0,0.0,0.0,0.0
2026-05-25 08:38:37.847209,1779712717.847209,1873756,-1422825,164165640,-37954,-138173,43395,61,0c53fe00,0.0,0.0,0.0,0.0,0.0,0.0
2026-05-25 08:38:37.847887,1779712717.847887,2095857,-1592580,164336561,-41099,-192340,22763,61,0c53fe00,0.0,0.0,0.0,0.0,0.0,0.0
2026-05-25 08:38:37.848725,1779712717.848725,2095857,-1592580,164336561,-41099,-192340,22763,61,0c53fe00,0.0,0.0,0.0,0.0,0.0,0.0
2026-05-25 08:38:37.849410,1779712717.849410,2362257,-1779391,164493376,-6479,-159760,58722,61,0c53fe00,0.0,0.0,0.0,0.0,0.0,0.0
2026-05-25 08:38:37.850305,1779712717.850305,2362257,-1779391,164493376,-6479,-159760,58722,61,0c53fe00,0.0,0.0,0.0,0.0,0.0,0.0
2026-05-25 08:38:37.851007,1779712717.851007,2516281,-1906982,164589882,-2510,-68658,114175,61,0c53fe00,0.0,0.0,0.0,0.0,0.0,0.0
2026-05-25 08:38:37.851895,1779712717.851895,2516281,-1906982,164589882,-2510,-68658,114175,61,0c53fe00,0.0,0.0,0.0,0.0,0.0,0.0
2026-05-25 08:38:37.852569,1779712717.852569,2495465,-1938947,164510298,4013,3997,136382,61,0c53fe00,0.0,0.0,0.0,0.0,0.0,0.0
2026-05-25 08:38:37.853416,1779712717.853416,2495465,-1938947,164510298,4013,3997,136382,61,0c53fe00,0.0,0.0,0.0,0.0,0.0,0.0
2026-05-25 08:38:37.854077,1779712717.854077,2323332,-1892900,164459068,31086,52609,135607,61,0c53fe00,0.0,0.0,0.0,0.0,0.0,0.0
2026-05-25 08:38:37.854915,1779712717.854915,2323332,-1892900,164459068,31086,52609,135607,61,0c53fe00,0.0,0.0,0.0,0.0,0.0,0.0
2026-05-25 08:38:37.855594,1779712717.855594,2184363,-1896107,164355171,57448,72258,111118,61,0c52fe00,0.0,0.0,0.0,0.0,0.0,0.0
2026-05-25 08:38:37.856483,1779712717.856483,2184363,-1896107,164355171,57448,72258,111118,61,0c52fe00,0.0,0.0,0.0,0.0,0.0,0.0
2026-05-25 08:38:37.857146,1779712717.857146,2075131,-1898608,164328736,78349,84404,90363,61,0c52fe00,0.0,0.0,0.0,0.0,0.0,0.0
2026-05-25 08:38:37.857991,1779712717.857991,2075131,-1898608,164328736,78349,84404,90363,61,0c52fe00,0.0,0.0,0.0,0.0,0.0,0.0
2026-05-25 08:38:37.858658,1779712717.858658,2039651,-1876660,164302747,100176,62922,87145,61,0c52fe00,0.0,0.0,0.0,0.0,0.0,0.0
2026-05-25 08:38:37.859498,1779712717.859498,2039651,-1876660,164302747,100176,62922,87145,61,0c52fe00,0.0,0.0,0.0,0.0,0.0,0.0
2026-05-25 08:38:37.860157,1779712717.860157,1959260,-1763580,164181922,97570,35725,95228,61,0c52fe00,0.0,0.0,0.0,0.0,0.0,0.0
2026-05-25 08:38:37.860997,1779712717.860997,1959260,-1763580,164181922,97570,35725,95228,61,0c52fe00,0.0,0.0,0.0,0.0,0.0,0.0
2026-05-25 08:38:37.861640,1779712717.861640,1913481,-1557743,164080768,80668,-27594,100434,61,0c52fe00,0.0,0.0,0.0,0.0,0.0,0.0
2026-05-25 08:38:37.862351,1779712717.862351,1913481,-1557743,164080768,80668,-27594,100434,61,0c52fe00,0.0,0.0,0.0,0.0,0.0,0.0
2026-05-25 08:38:37.863011,1779712717.863011,1942839,-1405973,164058004,2610,-131508,73993,61,0c52fe00,0.0,0.0,0.0,0.0,0.0,0.0
2026-05-25 08:38:37.863880,1779712717.863880,1942839,-1405973,164058004,2610,-131508,73993,61,0c52fe00,0.0,0.0,0.0,0.0,0.0,0.0
2026-05-25 08:38:37.864557,1779712717.864557,2199210,-1471287,164298761,-31980,-188125,51540,61,0c52fe00,0.0,0.0,0.0,0.0,0.0,0.0
2026-05-25 08:38:37.865407,1779712717.865407,2199210,-1471287,164298761,-31980,-188125,51540,61,0c52fe00,0.0,0.0,0.0,0.0,0.0,0.0
2026-05-25 08:38:37.866060,1779712717.866060,2501009,-1643899,164580401,286,-179250,51016,61,0c52fe00,0.0,0.0,0.0,0.0,0.0,0.0
2026-05-25 08:38:37.866931,1779712717.866931,2501009,-1643899,164580401,286,-179250,51016,61,0c52fe00,0.0,0.0,0.0,0.0,0.0,0.0
2026-05-25 08:38:37.867591,1779712717.867591,2818771,-1871758,164740664,71976,-43801,86478,61,0c52fe00,0.0,0.0,0.0,0.0,0.0,0.0
2026-05-25 08:38:37.868442,1779712717.868442,2818771,-1871758,164740664,71976,-43801,86478,61,0c52fe00,0.0,0.0,0.0,0.0,0.0,0.0
2026-05-25 08:38:37.869118,1779712717.869118,2766798,-1942367,164618071,111128,109943,149417,61,0c52fe00,0.0,0.0,0.0,0.0,0.0,0.0
2026-05-25 08:38:37.869961,1779712717.869961,2766798,-1942367,164618071,111128,109943,149417,61,0c52fe00,0.0,0.0,0.0,0.0,0.0,0.0
2026-05-25 08:38:37.870637,1779712717.870637,2485094,-1893134,164420236,91474,229067,166054,61,0c52fe00,0.0,0.0,0.0,0.0,0.0,0.0
2026-05-25 08:38:37.871484,1779712717.871484,2485094,-1893134,164420236,91474,229067,166054,61,0c52fe00,0.0,0.0,0.0,0.0,0.0,0.0
2026-05-25 08:38:37.872162,1779712717.872162,1985300,-1777907,164235935,95105,250082,164565,61,0c52fe00,0.0,0.0,0.0,0.0,0.0,0.0
2026-05-25 08:38:37.873005,1779712717.873005,1985300,-1777907,164235935,95105,250082,164565,61,0c52fe00,0.0,0.0,0.0,0.0,0.0,0.0
2026-05-25 08:38:37.873683,1779712717.873683,1660403,-1631207,163999957,101856,156803,76304,61,0c52fe00,0.0,0.0,0.0,0.0,0.0,0.0
2026-05-25 08:38:37.874530,1779712717.874530,1660403,-1631207,163999957,101856,156803,76304,61,0c52fe00,0.0,0.0,0.0,0.0,0.0,0.0
2026-05-25 08:38:37.875193,1779712717.875193,1571237,-1585787,163917837,90059,3113,22155,61,0c52fe00,0.0,0.0,0.0,0.0,0.0,0.0
2026-05-25 08:38:37.876036,1779712717.876036,1571237,-1585787,163917837,90059,3113,22155,61,0c52fe00,0.0,0.0,0.0,0.0,0.0,0.0
2026-05-25 08:38:37.876699,1779712717.876699,1697414,-1579736,163973424,40332,-116593,12692,61,0c52fe00,0.0,0.0,0.0,0.0,0.0,0.0
2026-05-25 08:38:37.877587,1779712717.877587,1697414,-1579736,163973424,40332,-116593,12692,61,0c52fe00,0.0,0.0,0.0,0.0,0.0,0.0
2026-05-25 08:38:37.878281,1779712717.878281,1937540,-1649471,164209212,5747,-190268,38672,61,0c52fe00,0.0,0.0,0.0,0.0,0.0,0.0
2026-05-25 08:38:37.879146,1779712717.879146,1937540,-1649471,164209212,5747,-190268,38672,61,0c52fe00,0.0,0.0,0.0,0.0,0.0,0.0
2026-05-25 08:38:37.879832,1779712717.879832,2154945,-1629414,164345263,-20036,-197820,62439,61,0c51fe00,0.0,0.0,0.0,0.0,0.0,0.0
2026-05-25 08:38:37.880699,1779712717.880699,2154945,-1629414,164345263,-20036,-197820,62439,61,0c51fe00,0.0,0.0,0.0,0.0,0.0,0.0
2026-05-25 08:38:37.881384,1779712717.881384,2334607,-1680254,164461199,-27720,-210967,67939,61,0c51fe00,0.0,0.0,0.0,0.0,0.0,0.0
2026-05-25 08:38:37.882269,1779712717.882269,2334607,-1680254,164461199,-27720,-210967,67939,61,0c51fe00,0.0,0.0,0.0,0.0,0.0,0.0
2026-05-25 08:38:37.882965,1779712717.882965,2465184,-1751960,164527695,-5709,-157795,72924,61,0c51fe00,0.0,0.0,0.0,0.0,0.0,0.0
2026-05-25 08:38:37.883855,1779712717.883855,2465184,-1751960,164527695,-5709,-157795,72924,61,0c51fe00,0.0,0.0,0.0,0.0,0.0,0.0
2026-05-25 08:38:37.884540,1779712717.884540,2595511,-1926833,164610865,37864,-112040,63797,61,0c51fe00,0.0,0.0,0.0,0.0,0.0,0.0
2026-05-25 08:38:37.885413,1779712717.885413,2595511,-1926833,164610865,37864,-112040,63797,61,0c51fe00,0.0,0.0,0.0,0.0,0.0,0.0
2026-05-25 08:38:37.886089,1779712717.886089,2691154,-2072093,164699050,78025,-8441,71066,61,0c52fe00,0.0,0.0,0.0,0.0,0.0,0.0
2026-05-25 08:38:37.886962,1779712717.886962,2691154,-2072093,164699050,78025,-8441,71066,61,0c52fe00,0.0,0.0,0.0,0.0,0.0,0.0
2026-05-25 08:38:37.887680,1779712717.887680,2650028,-2140230,164637130,103960,105615,70704,61,0c51fe00,0.0,0.0,0.0,0.0,0.0,0.0
2026-05-25 08:38:37.888567,1779712717.888567,2650028,-2140230,164637130,103960,105615,70704,61,0c51fe00,0.0,0.0,0.0,0.0,0.0,0.0
2026-05-25 08:38:37.892607,1779712717.892607,2411717,-2008326,164527184,130417,192294,92350,61,0c51fe00,0.0,0.0,0.0,0.0,0.0,0.0
2026-05-25 08:38:37.896972,1779712717.896972,2411717,-2008326,164527184,130417,192294,92350,61,0c51fe00,0.0,0.0,0.0,0.0,0.0,0.0
2026-05-25 08:38:37.898071,1779712717.898071,2411717,-2008326,164527184,130417,192294,92350,61,0c51fe00,0.0,0.0,0.0,0.0,0.0,0.0
2026-05-25 08:38:37.898574,1779712717.898574,2097746,-1807057,164294284,127342,223018,106115,61,0c51fe00,0.0,0.0,0.0,0.0,0.0,0.0
2026-05-25 08:38:37.901159,1779712717.901159,1809038,-1519192,164049092,128192,156186,112438,61,0c51fe00,0.0,0.0,0.0,0.0,0.0,0.0
2026-05-25 08:38:37.902059,1779712717.902059,1809038,-1519192,164049092,128192,156186,112438,61,0c51fe00,0.0,0.0,0.0,0.0,0.0,0.0
2026-05-25 08:38:37.958881,1779712717.958881,1701042,-1403731,163961913,89679,43553,89209,61,0c51fe00,0.0,0.0,0.0,0.0,0.0,0.0
2026-05-25 08:38:37.960006,1779712717.960006,1701042,-1403731,163961913,89679,43553,89209,61,0c51fe00,0.0,0.0,0.0,0.0,0.0,0.0
2026-05-25 08:38:37.969859,1779712717.969859,1851363,-1409004,164039030,69295,-69510,71143,61,0c51fe00,0.0,0.0,0.0,0.0,0.0,0.0
2026-05-25 08:38:37.970967,1779712717.970967,1851363,-1409004,164039030,69295,-69510,71143,61,0c51fe00,0.0,0.0,0.0,0.0,0.0,0.0
2026-05-25 08:38:37.972765,1779712717.972765,2116277,-1580668,164257107,42091,-131861,52627,61,0c51fe00,0.0,0.0,0.0,0.0,0.0,0.0
2026-05-25 08:38:37.973863,1779712717.973863,2116277,-1580668,164257107,42091,-131861,52627,61,0c51fe00,0.0,0.0,0.0,0.0,0.0,0.0
2026-05-25 08:38:37.974745,1779712717.974745,2315748,-1720586,164355383,-4107,-117645,83297,61,0c51fe00,0.0,0.0,0.0,0.0,0.0,0.0
2026-05-25 08:38:37.975833,1779712717.975833,2315748,-1720586,164355383,-4107,-117645,83297,61,0c51fe00,0.0,0.0,0.0,0.0,0.0,0.0
2026-05-25 08:38:37.977168,1779712717.977168,2382533,-1761729,164424265,-18629,-93436,100642,61,0c51fe00,0.0,0.0,0.0,0.0,0.0,0.0
2026-05-25 08:38:37.978262,1779712717.978262,2382533,-1761729,164424265,-18629,-93436,100642,61,0c51fe00,0.0,0.0,0.0,0.0,0.0,0.0
2026-05-25 08:38:37.979118,1779712717.979118,2288218,-1756343,164428006,-9836,-56120,103711,61,0c51fe00,0.0,0.0,0.0,0.0,0.0,0.0
2026-05-25 08:38:37.980220,1779712717.980220,2288218,-1756343,164428006,-9836,-56120,103711,61,0c51fe00,0.0,0.0,0.0,0.0,0.0,0.0
2026-05-25 08:38:37.982000,1779712717.982000,2276655,-1743803,164396844,39796,-45963,60958,61,0c51fe00,0.0,0.0,0.0,0.0,0.0,0.0
2026-05-25 08:38:37.983091,1779712717.983091,2276655,-1743803,164396844,39796,-45963,60958,61,0c51fe00,0.0,0.0,0.0,0.0,0.0,0.0
2026-05-25 08:38:37.983945,1779712717.983945,2359019,-1769707,164542779,95483,-39128,32466,61,0c50fe00,0.0,0.0,0.0,0.0,0.0,0.0
2026-05-25 08:38:37.985052,1779712717.985052,2359019,-1769707,164542779,95483,-39128,32466,61,0c50fe00,0.0,0.0,0.0,0.0,0.0,0.0
2026-05-25 08:38:37.986900,1779712717.986900,2507469,-1792804,164557886,155445,32306,45884,61,0c50fe00,0.0,0.0,0.0,0.0,0.0,0.0
2026-05-25 08:38:37.988048,1779712717.988048,2507469,-1792804,164557886,155445,32306,45884,61,0c50fe00,0.0,0.0,0.0,0.0,0.0,0.0
2026-05-25 08:38:37.988954,1779712717.988954,2544156,-1821898,164618370,173610,99642,107981,61,0c50fe00,0.0,0.0,0.0,0.0,0.0,0.0
2026-05-25 08:38:37.990095,1779712717.990095,2544156,-1821898,164618370,173610,99642,107981,61,0c50fe00,0.0,0.0,0.0,0.0,0.0,0.0
2026-05-25 08:38:37.991009,1779712717.991009,2317356,-1827262,164330970,153838,180897,164858,61,0c50fe00,0.0,0.0,0.0,0.0,0.0,0.0
2026-05-25 08:38:37.992152,1779712717.992152,2317356,-1827262,164330970,153838,180897,164858,61,0c50fe00,0.0,0.0,0.0,0.0,0.0,0.0
2026-05-25 08:38:37.993055,1779712717.993055,1988917,-1749375,164154079,89363,157824,163329,61,0c50fe00,0.0,0.0,0.0,0.0,0.0,0.0
2026-05-25 08:38:37.994191,1779712717.994191,1988917,-1749375,164154079,89363,157824,163329,61,0c50fe00,0.0,0.0,0.0,0.0,0.0,0.0
2026-05-25 08:38:37.995101,1779712717.995101,1688439,-1672394,163957400,44575,99578,115434,61,0c51fe00,0.0,0.0,0.0,0.0,0.0,0.0
2026-05-25 08:38:37.996253,1779712717.996253,1688439,-1672394,163957400,44575,99578,115434,61,0c51fe00,0.0,0.0,0.0,0.0,0.0,0.0
2026-05-25 08:38:37.997153,1779712717.997153,1645876,-1606360,163999059,29774,-48617,49751,61,0c50fe00,0.0,0.0,0.0,0.0,0.0,0.0
2026-05-25 08:38:37.998307,1779712717.998307,1645876,-1606360,163999059,29774,-48617,49751,61,0c50fe00,0.0,0.0,0.0,0.0,0.0,0.0
2026-05-25 08:38:37.999207,1779712717.999207,1875702,-1689340,164150465,26008,-149084,10129,61,0c51fe00,0.0,0.0,0.0,0.0,0.0,0.0
2026-05-25 08:38:38.000341,1779712718.000341,1875702,-1689340,164150465,26008,-149084,10129,61,0c51fe00,0.0,0.0,0.0,0.0,0.0,0.0
2026-05-25 08:38:38.001232,1779712718.001232,2186772,-1690706,164280981,11078,-187011,27739,61,0c50fe00,0.0,0.0,0.0,0.0,0.0,0.0
2026-05-25 08:38:38.002365,1779712718.002365,2186772,-1690706,164280981,11078,-187011,27739,61,0c50fe00,0.0,0.0,0.0,0.0,0.0,0.0
2026-05-25 08:38:38.003235,1779712718.003235,2389738,-1726315,164456295,14043,-164386,65522,61,0c50fe00,0.0,0.0,0.0,0.0,0.0,0.0
2026-05-25 08:38:38.004357,1779712718.004357,2389738,-1726315,164456295,14043,-164386,65522,61,0c50fe00,0.0,0.0,0.0,0.0,0.0,0.0
2026-05-25 08:38:38.005263,1779712718.005263,2416236,-1669421,164405386,12301,-94619,131850,61,0c50fe00,0.0,0.0,0.0,0.0,0.0,0.0
2026-05-25 08:38:38.006402,1779712718.006402,2416236,-1669421,164405386,12301,-94619,131850,61,0c50fe00,0.0,0.0,0.0,0.0,0.0,0.0
2026-05-25 08:38:38.007298,1779712718.007298,2329628,-1591260,164364389,5817,-73245,110585,61,0c50fe00,0.0,0.0,0.0,0.0,0.0,0.0
2026-05-25 08:38:38.008443,1779712718.008443,2329628,-1591260,164364389,5817,-73245,110585,61,0c50fe00,0.0,0.0,0.0,0.0,0.0,0.0
2026-05-25 08:38:38.009378,1779712718.009378,2261604,-1633844,164302903,-22610,-65626,97269,61,0c50fe00,0.0,0.0,0.0,0.0,0.0,0.0
2026-05-25 08:38:38.010595,1779712718.010595,2261604,-1633844,164302903,-22610,-65626,97269,61,0c50fe00,0.0,0.0,0.0,0.0,0.0,0.0
2026-05-25 08:38:38.011546,1779712718.011546,2270190,-1807773,164346602,15452,-54884,59339,61,0c50fe00,0.0,0.0,0.0,0.0,0.0,0.0
2026-05-25 08:38:38.012786,1779712718.012786,2270190,-1807773,164346602,15452,-54884,59339,61,0c50fe00,0.0,0.0,0.0,0.0,0.0,0.0
2026-05-25 08:38:38.013741,1779712718.013741,2319507,-2064085,164486943,44037,-26912,55655,61,0c50fe00,0.0,0.0,0.0,0.0,0.0,0.0
2026-05-25 08:38:38.014944,1779712718.014944,2319507,-2064085,164486943,44037,-26912,55655,61,0c50fe00,0.0,0.0,0.0,0.0,0.0,0.0
2026-05-25 08:38:38.015875,1779712718.015875,2337257,-2083116,164443985,90872,41126,95256,61,0c50fe00,0.0,0.0,0.0,0.0,0.0,0.0
2026-05-25 08:38:38.017062,1779712718.017062,2337257,-2083116,164443985,90872,41126,95256,61,0c50fe00,0.0,0.0,0.0,0.0,0.0,0.0
2026-05-25 08:38:38.018011,1779712718.018011,2203211,-1924297,164347448,82945,102884,113471,61,0c50fe00,0.0,0.0,0.0,0.0,0.0,0.0
2026-05-25 08:38:38.019217,1779712718.019217,2203211,-1924297,164347448,82945,102884,113471,61,0c50fe00,0.0,0.0,0.0,0.0,0.0,0.0
2026-05-25 08:38:38.020166,1779712718.020166,2047770,-1619823,164152287,78818,93811,113018,61,0c50fe00,0.0,0.0,0.0,0.0,0.0,0.0
2026-05-25 08:38:38.021362,1779712718.021362,2047770,-1619823,164152287,78818,93811,113018,61,0c50fe00,0.0,0.0,0.0,0.0,0.0,0.0
2026-05-25 08:38:38.022298,1779712718.022298,1923144,-1442012,164152996,45748,7332,66315,61,0c50fe00,0.0,0.0,0.0,0.0,0.0,0.0
2026-05-25 08:38:38.023482,1779712718.023482,1923144,-1442012,164152996,45748,7332,66315,61,0c50fe00,0.0,0.0,0.0,0.0,0.0,0.0
2026-05-25 08:38:38.024399,1779712718.024399,2005882,-1459048,164204464,50879,-89827,53178,61,0c50fe00,0.0,0.0,0.0,0.0,0.0,0.0
2026-05-25 08:38:38.025578,1779712718.025578,2005882,-1459048,164204464,50879,-89827,53178,61,0c50fe00,0.0,0.0,0.0,0.0,0.0,0.0
2026-05-25 08:38:38.026508,1779712718.026508,2205756,-1539485,164278668,70096,-106137,59127,61,0c4ffe00,0.0,0.0,0.0,0.0,0.0,0.0
2026-05-25 08:38:38.027696,1779712718.027696,2205756,-1539485,164278668,70096,-106137,59127,61,0c4ffe00,0.0,0.0,0.0,0.0,0.0,0.0
2026-05-25 08:38:38.028620,1779712718.028620,2350764,-1629462,164293154,46355,-90974,96420,61,0c4ffe00,0.0,0.0,0.0,0.0,0.0,0.0
2026-05-25 08:38:38.029833,1779712718.029833,2350764,-1629462,164293154,46355,-90974,96420,61,0c4ffe00,0.0,0.0,0.0,0.0,0.0,0.0
2026-05-25 08:38:38.030769,1779712718.030769,2338174,-1775685,164289141,5916,-64466,105661,61,0c4ffe00,0.0,0.0,0.0,0.0,0.0,0.0
2026-05-25 08:38:38.031957,1779712718.031957,2338174,-1775685,164289141,5916,-64466,105661,61,0c4ffe00,0.0,0.0,0.0,0.0,0.0,0.0
2026-05-25 08:38:38.032905,1779712718.032905,2194762,-1844918,164346889,-20600,-100072,114738,61,0c4ffe00,0.0,0.0,0.0,0.0,0.0,0.0
2026-05-25 08:38:38.034110,1779712718.034110,2194762,-1844918,164346889,-20600,-100072,114738,61,0c4ffe00,0.0,0.0,0.0,0.0,0.0,0.0
2026-05-25 08:38:38.035056,1779712718.035056,2160312,-2020575,164454538,39274,-88893,102389,61,0c4ffe00,0.0,0.0,0.0,0.0,0.0,0.0
2026-05-25 08:38:38.036117,1779712718.036117,2160312,-2020575,164454538,39274,-88893,102389,61,0c4ffe00,0.0,0.0,0.0,0.0,0.0,0.0
2026-05-25 08:38:38.036896,1779712718.036896,2305938,-2066608,164546209,127900,-58517,95112,61,0c4ffe00,0.0,0.0,0.0,0.0,0.0,0.0
2026-05-25 08:38:38.037891,1779712718.037891,2305938,-2066608,164546209,127900,-58517,95112,61,0c4ffe00,0.0,0.0,0.0,0.0,0.0,0.0
2026-05-25 08:38:38.038678,1779712718.038678,2499799,-2095814,164523038,152602,10324,102507,61,0c4ffe00,0.0,0.0,0.0,0.0,0.0,0.0
2026-05-25 08:38:38.039672,1779712718.039672,2499799,-2095814,164523038,152602,10324,102507,61,0c4ffe00,0.0,0.0,0.0,0.0,0.0,0.0
2026-05-25 08:38:38.040461,1779712718.040461,2533221,-1923913,164418409,122168,103338,117026,61,0c4ffe00,0.0,0.0,0.0,0.0,0.0,0.0
2026-05-25 08:38:38.041447,1779712718.041447,2533221,-1923913,164418409,122168,103338,117026,61,0c4ffe00,0.0,0.0,0.0,0.0,0.0,0.0
2026-05-25 08:38:38.042232,1779712718.042232,2310550,-1641644,164278457,67063,135530,127480,61,0c4ffe00,0.0,0.0,0.0,0.0,0.0,0.0
2026-05-25 08:38:38.043218,1779712718.043218,2310550,-1641644,164278457,67063,135530,127480,61,0c4ffe00,0.0,0.0,0.0,0.0,0.0,0.0
2026-05-25 08:38:38.044005,1779712718.044005,1919511,-1318797,164182235,45029,132366,130760,61,0c4ffe00,0.0,0.0,0.0,0.0,0.0,0.0
2026-05-25 08:38:38.045042,1779712718.045042,1919511,-1318797,164182235,45029,132366,130760,61,0c4ffe00,0.0,0.0,0.0,0.0,0.0,0.0
2026-05-25 08:38:38.045884,1779712718.045884,1692815,-1148108,164038800,55085,12232,107077,61,0c4ffe00,0.0,0.0,0.0,0.0,0.0,0.0
2026-05-25 08:38:38.046933,1779712718.046933,1692815,-1148108,164038800,55085,12232,107077,61,0c4ffe00,0.0,0.0,0.0,0.0,0.0,0.0
2026-05-25 08:38:38.047729,1779712718.047729,1668361,-1186203,164047912,30781,-118693,60828,61,0c4ffe00,0.0,0.0,0.0,0.0,0.0,0.0
2026-05-25 08:38:38.048714,1779712718.048714,1668361,-1186203,164047912,30781,-118693,60828,61,0c4ffe00,0.0,0.0,0.0,0.0,0.0,0.0
2026-05-25 08:38:38.049492,1779712718.049492,1934626,-1457210,164053637,-32083,-243828,33944,61,0c4ffe00,0.0,0.0,0.0,0.0,0.0,0.0
2026-05-25 08:38:38.050478,1779712718.050478,1934626,-1457210,164053637,-32083,-243828,33944,61,0c4ffe00,0.0,0.0,0.0,0.0,0.0,0.0
2026-05-25 08:38:38.051263,1779712718.051263,2171019,-1785379,164271285,-97141,-275812,42114,61,0c4ffe00,0.0,0.0,0.0,0.0,0.0,0.0
2026-05-25 08:38:38.052256,1779712718.052256,2171019,-1785379,164271285,-97141,-275812,42114,61,0c4ffe00,0.0,0.0,0.0,0.0,0.0,0.0
2026-05-25 08:38:38.053040,1779712718.053040,2378556,-2019123,164447437,-112095,-231389,80007,61,0c4ffe00,0.0,0.0,0.0,0.0,0.0,0.0
2026-05-25 08:38:38.054033,1779712718.054033,2378556,-2019123,164447437,-112095,-231389,80007,61,0c4ffe00,0.0,0.0,0.0,0.0,0.0,0.0
2026-05-25 08:38:38.054814,1779712718.054814,2415446,-2085901,164499026,-65975,-140928,83253,61,0c4ffe00,0.0,0.0,0.0,0.0,0.0,0.0
2026-05-25 08:38:38.055800,1779712718.055800,2415446,-2085901,164499026,-65975,-140928,83253,61,0c4ffe00,0.0,0.0,0.0,0.0,0.0,0.0
2026-05-25 08:38:38.056567,1779712718.056567,2442994,-2007961,164537093,5301,-70269,92570,61,0c4ffe00,0.0,0.0,0.0,0.0,0.0,0.0
2026-05-25 08:38:38.057558,1779712718.057558,2442994,-2007961,164537093,5301,-70269,92570,61,0c4ffe00,0.0,0.0,0.0,0.0,0.0,0.0
2026-05-25 08:38:38.064094,1779712718.064094,2405579,-1915284,164433403,76993,12156,65207,61,0c4ffe00,0.0,0.0,0.0,0.0,0.0,0.0
2026-05-25 08:38:38.065134,1779712718.065134,2405579,-1915284,164433403,76993,12156,65207,61,0c4ffe00,0.0,0.0,0.0,0.0,0.0,0.0
2026-05-25 08:38:38.074094,1779712718.074094,2373221,-1784681,164464561,113537,37766,63758,61,0c4ffe00,0.0,0.0,0.0,0.0,0.0,0.0
2026-05-25 08:38:38.075094,1779712718.075094,2373221,-1784681,164464561,113537,37766,63758,61,0c4ffe00,0.0,0.0,0.0,0.0,0.0,0.0
2026-05-25 08:38:38.083986,1779712718.083986,2305119,-1631235,164301931,83556,67335,71378,61,0c4efe00,0.0,0.0,0.0,0.0,0.0,0.0
2026-05-25 08:38:38.085040,1779712718.085040,2305119,-1631235,164301931,83556,67335,71378,61,0c4efe00,0.0,0.0,0.0,0.0,0.0,0.0
2026-05-25 08:38:38.095854,1779712718.095854,2144744,-1492878,164225383,23749,43169,106638,61,0c4efe00,0.0,0.0,0.0,0.0,0.0,0.0
2026-05-25 08:38:38.097027,1779712718.097027,2144744,-1492878,164225383,23749,43169,106638,61,0c4efe00,0.0,0.0,0.0,0.0,0.0,0.0
2026-05-25 08:38:38.105022,1779712718.105022,1973196,-1387742,164034939,-53594,-23205,119662,61,0c4efe00,0.0,0.0,0.0,0.0,0.0,0.0
2026-05-25 08:38:38.107348,1779712718.107348,1973196,-1387742,164034939,-53594,-23205,119662,61,0c4efe00,0.0,0.0,0.0,0.0,0.0,0.0
2026-05-25 08:38:38.114649,1779712718.114649,1819330,-1442775,164132325,-103545,-107244,94992,61,0c4efe00,0.0,0.0,0.0,0.0,0.0,0.0
2026-05-25 08:38:38.115693,1779712718.115693,1819330,-1442775,164132325,-103545,-107244,94992,61,0c4efe00,0.0,0.0,0.0,0.0,0.0,0.0
2026-05-25 08:38:38.123966,1779712718.123966,1923156,-1536172,164190088,-78636,-197367,72258,61,0c4efe00,0.0,0.0,0.0,0.0,0.0,0.0
2026-05-25 08:38:38.125003,1779712718.125003,1923156,-1536172,164190088,-78636,-197367,72258,61,0c4efe00,0.0,0.0,0.0,0.0,0.0,0.0
2026-05-25 08:38:38.134179,1779712718.134179,2139068,-1837481,164453493,-19606,-200177,78281,61,0c4efe00,0.0,0.0,0.0,0.0,0.0,0.0
2026-05-25 08:38:38.135157,1779712718.135157,2139068,-1837481,164453493,-19606,-200177,78281,61,0c4efe00,0.0,0.0,0.0,0.0,0.0,0.0
2026-05-25 08:38:38.144133,1779712718.144133,2431774,-2026311,164450939,37289,-152480,89965,61,0c4efe00,0.0,0.0,0.0,0.0,0.0,0.0
2026-05-25 08:38:38.145066,1779712718.145066,2431774,-2026311,164450939,37289,-152480,89965,61,0c4efe00,0.0,0.0,0.0,0.0,0.0,0.0
2026-05-25 08:38:38.154041,1779712718.154041,2442887,-2104187,164478443,57083,-60487,88267,61,0c4efe00,0.0,0.0,0.0,0.0,0.0,0.0
2026-05-25 08:38:38.154984,1779712718.154984,2442887,-2104187,164478443,57083,-60487,88267,61,0c4efe00,0.0,0.0,0.0,0.0,0.0,0.0
2026-05-25 08:38:38.163867,1779712718.163867,2330335,-1939764,164351324,20859,-790,82389,61,0c4efe00,0.0,0.0,0.0,0.0,0.0,0.0
2026-05-25 08:38:38.164814,1779712718.164814,2330335,-1939764,164351324,20859,-790,82389,61,0c4efe00,0.0,0.0,0.0,0.0,0.0,0.0
2026-05-25 08:38:38.173884,1779712718.173884,2089473,-1738121,164277562,8380,-10225,70188,61,0c4efe00,0.0,0.0,0.0,0.0,0.0,0.0
2026-05-25 08:38:38.174823,1779712718.174823,2089473,-1738121,164277562,8380,-10225,70188,61,0c4efe00,0.0,0.0,0.0,0.0,0.0,0.0
2026-05-25 08:38:38.183903,1779712718.183903,2033121,-1538890,164293101,-6327,-64490,51092,61,0c4efe00,0.0,0.0,0.0,0.0,0.0,0.0
2026-05-25 08:38:38.184844,1779712718.184844,2033121,-1538890,164293101,-6327,-64490,51092,61,0c4efe00,0.0,0.0,0.0,0.0,0.0,0.0
2026-05-25 08:38:38.194112,1779712718.194112,2136573,-1560486,164307171,27687,-101850,55710,61,0c4efe00,0.0,0.0,0.0,0.0,0.0,0.0
2026-05-25 08:38:38.195071,1779712718.195071,2136573,-1560486,164307171,27687,-101850,55710,61,0c4efe00,0.0,0.0,0.0,0.0,0.0,0.0
2026-05-25 08:38:38.204075,1779712718.204075,2338774,-1704006,164441202,30947,-61322,77377,61,0c4efe00,0.0,0.0,0.0,0.0,0.0,0.0
2026-05-25 08:38:38.204951,1779712718.204951,2338774,-1704006,164441202,30947,-61322,77377,61,0c4efe00,0.0,0.0,0.0,0.0,0.0,0.0
2026-05-25 08:38:38.213833,1779712718.213833,2394313,-1835834,164301084,46262,10275,121342,61,0c4efe00,0.0,0.0,0.0,0.0,0.0,0.0
2026-05-25 08:38:38.214689,1779712718.214689,2394313,-1835834,164301084,46262,10275,121342,61,0c4efe00,0.0,0.0,0.0,0.0,0.0,0.0
2026-05-25 08:38:38.223853,1779712718.223853,2190760,-1798258,164151222,-11062,7891,145881,61,0c4efe00,0.0,0.0,0.0,0.0,0.0,0.0
2026-05-25 08:38:38.224657,1779712718.224657,2190760,-1798258,164151222,-11062,7891,145881,61,0c4efe00,0.0,0.0,0.0,0.0,0.0,0.0
2026-05-25 08:38:38.234571,1779712718.234571,1926669,-1730813,164024140,-59220,-40902,139270,61,0c4efe00,0.0,0.0,0.0,0.0,0.0,0.0
2026-05-25 08:38:38.236501,1779712718.236501,1926669,-1730813,164024140,-59220,-40902,139270,61,0c4efe00,0.0,0.0,0.0,0.0,0.0,0.0
2026-05-25 08:38:38.244547,1779712718.244547,1756573,-1718980,164099314,-99095,-143835,72457,61,0c4efe00,0.0,0.0,0.0,0.0,0.0,0.0
2026-05-25 08:38:38.246497,1779712718.246497,1756573,-1718980,164099314,-99095,-143835,72457,61,0c4efe00,0.0,0.0,0.0,0.0,0.0,0.0
2026-05-25 08:38:38.254580,1779712718.254580,1867750,-1778504,164297954,-67823,-199922,28256,61,0c4efe00,0.0,0.0,0.0,0.0,0.0,0.0
2026-05-25 08:38:38.256451,1779712718.256451,1867750,-1778504,164297954,-67823,-199922,28256,61,0c4efe00,0.0,0.0,0.0,0.0,0.0,0.0
2026-05-25 08:38:38.264525,1779712718.264525,2157340,-1773711,164357534,-46909,-236182,17700,61,0c4efe00,0.0,0.0,0.0,0.0,0.0,0.0
2026-05-25 08:38:38.266444,1779712718.266444,2157340,-1773711,164357534,-46909,-236182,17700,61,0c4efe00,0.0,0.0,0.0,0.0,0.0,0.0
2026-05-25 08:38:38.274566,1779712718.274566,2390004,-1723926,164642729,-25572,-168853,76575,61,0c4efe00,0.0,0.0,0.0,0.0,0.0,0.0
2026-05-25 08:38:38.276483,1779712718.276483,2390004,-1723926,164642729,-25572,-168853,76575,61,0c4efe00,0.0,0.0,0.0,0.0,0.0,0.0
2026-05-25 08:38:38.283799,1779712718.283799,2523353,-1498647,164566446,45533,-109597,103518,61,0c4efe00,0.0,0.0,0.0,0.0,0.0,0.0
2026-05-25 08:38:38.284590,1779712718.284590,2523353,-1498647,164566446,45533,-109597,103518,61,0c4efe00,0.0,0.0,0.0,0.0,0.0,0.0
2026-05-25 08:38:38.293892,1779712718.293892,2584396,-1380634,164649282,92438,27043,107339,61,0c4efe00,0.0,0.0,0.0,0.0,0.0,0.0
2026-05-25 08:38:38.294677,1779712718.294677,2584396,-1380634,164649282,92438,27043,107339,61,0c4efe00,0.0,0.0,0.0,0.0,0.0,0.0
2026-05-25 08:38:38.303878,1779712718.303878,2512505,-1260444,164317541,115969,43666,51440,61,0c4dfe00,0.0,0.0,0.0,0.0,0.0,0.0
2026-05-25 08:38:38.304692,1779712718.304692,2512505,-1260444,164317541,115969,43666,51440,61,0c4dfe00,0.0,0.0,0.0,0.0,0.0,0.0
2026-05-25 08:38:38.313781,1779712718.313781,2496274,-1609902,164463553,69764,107953,57272,61,0c4dfe00,0.0,0.0,0.0,0.0,0.0,0.0
2026-05-25 08:38:38.314594,1779712718.314594,2496274,-1609902,164463553,69764,107953,57272,61,0c4dfe00,0.0,0.0,0.0,0.0,0.0,0.0
2026-05-25 08:38:38.324048,1779712718.324048,2250394,-1801137,164393052,68716,100922,33487,61,0c4dfe00,0.0,0.0,0.0,0.0,0.0,0.0
2026-05-25 08:38:38.325183,1779712718.325183,2250394,-1801137,164393052,68716,100922,33487,61,0c4dfe00,0.0,0.0,0.0,0.0,0.0,0.0
2026-05-25 08:38:38.333890,1779712718.333890,2048948,-2170349,164349191,36666,141662,84709,61,0c4dfe00,0.0,0.0,0.0,0.0,0.0,0.0
2026-05-25 08:38:38.334782,1779712718.334782,2048948,-2170349,164349191,36666,141662,84709,61,0c4dfe00,0.0,0.0,0.0,0.0,0.0,0.0
2026-05-25 08:38:38.343955,1779712718.343955,1700293,-2023626,164083850,59222,104875,104600,61,0c4dfe00,0.0,0.0,0.0,0.0,0.0,0.0
2026-05-25 08:38:38.344876,1779712718.344876,1700293,-2023626,164083850,59222,104875,104600,61,0c4dfe00,0.0,0.0,0.0,0.0,0.0,0.0
2026-05-25 08:38:38.353803,1779712718.353803,1604922,-1955975,163956204,33051,6385,104419,61,0c4dfe00,0.0,0.0,0.0,0.0,0.0,0.0
2026-05-25 08:38:38.354639,1779712718.354639,1604922,-1955975,163956204,33051,6385,104419,61,0c4dfe00,0.0,0.0,0.0,0.0,0.0,0.0
2026-05-25 08:38:38.363944,1779712718.363944,1661293,-1647983,164063382,49502,-122750,53929,61,0c4dfe00,0.0,0.0,0.0,0.0,0.0,0.0
2026-05-25 08:38:38.364855,1779712718.364855,1661293,-1647983,164063382,49502,-122750,53929,61,0c4dfe00,0.0,0.0,0.0,0.0,0.0,0.0
2026-05-25 08:38:38.374078,1779712718.374078,2055239,-1652058,164188450,60787,-209825,27734,61,0c4dfe00,0.0,0.0,0.0,0.0,0.0,0.0
2026-05-25 08:38:38.374969,1779712718.374969,2055239,-1652058,164188450,60787,-209825,27734,61,0c4dfe00,0.0,0.0,0.0,0.0,0.0,0.0
2026-05-25 08:38:38.383919,1779712718.383919,2444838,-1585737,164445454,53834,-199853,23056,61,0c4dfe00,0.0,0.0,0.0,0.0,0.0,0.0
2026-05-25 08:38:38.384844,1779712718.384844,2444838,-1585737,164445454,53834,-199853,23056,61,0c4dfe00,0.0,0.0,0.0,0.0,0.0,0.0
2026-05-25 08:38:38.394090,1779712718.394090,2644293,-1641126,164543143,34678,-154802,43908,61,0c4dfe00,0.0,0.0,0.0,0.0,0.0,0.0
2026-05-25 08:38:38.394978,1779712718.394978,2644293,-1641126,164543143,34678,-154802,43908,61,0c4dfe00,0.0,0.0,0.0,0.0,0.0,0.0
2026-05-25 08:38:38.404090,1779712718.404090,2534444,-1527921,164574641,14568,-73677,101270,61,0c4dfe00,0.0,0.0,0.0,0.0,0.0,0.0
2026-05-25 08:38:38.405001,1779712718.405001,2534444,-1527921,164574641,14568,-73677,101270,61,0c4dfe00,0.0,0.0,0.0,0.0,0.0,0.0
2026-05-25 08:38:38.413921,1779712718.413921,2320072,-1518217,164482475,46928,-35929,117722,61,0c4dfe00,0.0,0.0,0.0,0.0,0.0,0.0
2026-05-25 08:38:38.414799,1779712718.414799,2320072,-1518217,164482475,46928,-35929,117722,61,0c4dfe00,0.0,0.0,0.0,0.0,0.0,0.0
2026-05-25 08:38:38.424577,1779712718.424577,2166302,-1577039,164336211,50435,-47927,90108,61,0c4dfe00,0.0,0.0,0.0,0.0,0.0,0.0
2026-05-25 08:38:38.426611,1779712718.426611,2166302,-1577039,164336211,50435,-47927,90108,61,0c4dfe00,0.0,0.0,0.0,0.0,0.0,0.0
2026-05-25 08:38:38.434967,1779712718.434967,2195455,-1799600,164357542,77567,-64521,73946,61,0c4dfe00,0.0,0.0,0.0,0.0,0.0,0.0
2026-05-25 08:38:38.436197,1779712718.436197,2195455,-1799600,164357542,77567,-64521,73946,61,0c4dfe00,0.0,0.0,0.0,0.0,0.0,0.0
2026-05-25 08:38:38.443864,1779712718.443864,2249789,-2037106,164447503,59482,-60425,61738,61,0c4dfe00,0.0,0.0,0.0,0.0,0.0,0.0
2026-05-25 08:38:38.444737,1779712718.444737,2249789,-2037106,164447503,59482,-60425,61738,61,0c4dfe00,0.0,0.0,0.0,0.0,0.0,0.0
2026-05-25 08:38:38.454045,1779712718.454045,2333241,-2152648,164535304,74280,4375,99901,61,0c4dfe00,0.0,0.0,0.0,0.0,0.0,0.0
2026-05-25 08:38:38.455683,1779712718.455683,2333241,-2152648,164535304,74280,4375,99901,61,0c4dfe00,0.0,0.0,0.0,0.0,0.0,0.0
2026-05-25 08:38:38.463959,1779712718.463959,2297160,-2052397,164441950,93094,80956,132857,61,0c4cfe00,0.0,0.0,0.0,0.0,0.0,0.0
2026-05-25 08:38:38.464795,1779712718.464795,2297160,-2052397,164441950,93094,80956,132857,61,0c4cfe00,0.0,0.0,0.0,0.0,0.0,0.0
2026-05-25 08:38:38.474854,1779712718.474854,2149531,-1711506,164247077,90113,70624,140876,61,0c4cfe00,0.0,0.0,0.0,0.0,0.0,0.0
2026-05-25 08:38:38.476756,1779712718.476756,2149531,-1711506,164247077,90113,70624,140876,61,0c4cfe00,0.0,0.0,0.0,0.0,0.0,0.0
2026-05-25 08:38:38.484608,1779712718.484608,1955578,-1413180,164150101,63187,35677,117514,61,0c4cfe00,0.0,0.0,0.0,0.0,0.0,0.0
2026-05-25 08:38:38.485872,1779712718.485872,1955578,-1413180,164150101,63187,35677,117514,61,0c4cfe00,0.0,0.0,0.0,0.0,0.0,0.0
2026-05-25 08:38:38.494564,1779712718.494564,1980351,-1304387,164189254,59618,-60704,48180,61,0c4cfe00,0.0,0.0,0.0,0.0,0.0,0.0
2026-05-25 08:38:38.496478,1779712718.496478,1980351,-1304387,164189254,59618,-60704,48180,61,0c4cfe00,0.0,0.0,0.0,0.0,0.0,0.0
2026-05-25 08:38:38.504528,1779712718.504528,2170174,-1442331,164314792,43388,-106325,17662,61,0c4cfe00,0.0,0.0,0.0,0.0,0.0,0.0
2026-05-25 08:38:38.506573,1779712718.506573,2170174,-1442331,164314792,43388,-106325,17662,61,0c4cfe00,0.0,0.0,0.0,0.0,0.0,0.0
2026-05-25 08:38:38.514596,1779712718.514596,2434012,-1658111,164425703,48544,-115970,26470,61,0c4cfe00,0.0,0.0,0.0,0.0,0.0,0.0
2026-05-25 08:38:38.516530,1779712718.516530,2434012,-1658111,164425703,48544,-115970,26470,61,0c4cfe00,0.0,0.0,0.0,0.0,0.0,0.0
2026-05-25 08:38:38.524414,1779712718.524414,2523966,-1871627,164486315,54168,-62477,64320,61,0c4cfe00,0.0,0.0,0.0,0.0,0.0,0.0
2026-05-25 08:38:38.526048,1779712718.526048,2523966,-1871627,164486315,54168,-62477,64320,61,0c4cfe00,0.0,0.0,0.0,0.0,0.0,0.0
2026-05-25 08:38:38.533806,1779712718.533806,2401587,-1940146,164446206,43408,8078,96721,61,0c4cfe00,0.0,0.0,0.0,0.0,0.0,0.0
2026-05-25 08:38:38.534593,1779712718.534593,2401587,-1940146,164446206,43408,8078,96721,61,0c4cfe00,0.0,0.0,0.0,0.0,0.0,0.0
2026-05-25 08:38:38.543879,1779712718.543879,2198620,-1923715,164284962,55423,26470,106937,61,0c4cfe00,0.0,0.0,0.0,0.0,0.0,0.0
2026-05-25 08:38:38.544639,1779712718.544639,2198620,-1923715,164284962,55423,26470,106937,61,0c4cfe00,0.0,0.0,0.0,0.0,0.0,0.0
2026-05-25 08:38:38.554688,1779712718.554688,2041322,-1838504,164222151,81015,25123,94867,61,0c4cfe00,0.0,0.0,0.0,0.0,0.0,0.0
2026-05-25 08:38:38.555481,1779712718.555481,2041322,-1838504,164222151,81015,25123,94867,61,0c4cfe00,0.0,0.0,0.0,0.0,0.0,0.0
2026-05-25 08:38:38.563690,1779712718.563690,2037823,-1824488,164251925,110278,12371,66433,61,0c4cfe00,0.0,0.0,0.0,0.0,0.0,0.0
2026-05-25 08:38:38.564437,1779712718.564437,2037823,-1824488,164251925,110278,12371,66433,61,0c4cfe00,0.0,0.0,0.0,0.0,0.0,0.0
2026-05-25 08:38:38.575440,1779712718.575440,2064416,-1843191,164307188,117959,-34264,67697,61,0c4cfe00,0.0,0.0,0.0,0.0,0.0,0.0
2026-05-25 08:38:38.577665,1779712718.577665,2064416,-1843191,164307188,117959,-34264,67697,61,0c4cfe00,0.0,0.0,0.0,0.0,0.0,0.0
2026-05-25 08:38:38.584564,1779712718.584564,2117983,-1781921,164253889,84590,-44227,79514,61,0c4cfe00,0.0,0.0,0.0,0.0,0.0,0.0
2026-05-25 08:38:38.586440,1779712718.586440,2117983,-1781921,164253889,84590,-44227,79514,61,0c4cfe00,0.0,0.0,0.0,0.0,0.0,0.0
2026-05-25 08:38:38.601384,1779712718.601384,2127984,-1644077,164227158,34150,-59946,96426,61,0c4cfe00,0.0,0.0,0.0,0.0,0.0,0.0
2026-05-25 08:38:38.608511,1779712718.608511,2127984,-1644077,164227158,34150,-59946,96426,61,0c4cfe00,0.0,0.0,0.0,0.0,0.0,0.0
2026-05-25 08:38:38.609083,1779712718.609083,2090614,-1505562,164219053,437,-89554,86139,61,0c4cfe00,0.0,0.0,0.0,0.0,0.0,0.0
2026-05-25 08:38:38.609806,1779712718.609806,2090614,-1505562,164219053,437,-89554,86139,61,0c4cfe00,0.0,0.0,0.0,0.0,0.0,0.0
2026-05-25 08:38:38.616491,1779712718.616491,2111270,-1437030,164220350,1156,-120178,74587,61,0c4cfe00,0.0,0.0,0.0,0.0,0.0,0.0
2026-05-25 08:38:38.617205,1779712718.617205,2111270,-1437030,164220350,1156,-120178,74587,61,0c4cfe00,0.0,0.0,0.0,0.0,0.0,0.0
2026-05-25 08:38:38.672193,1779712718.672193,2272431,-1597573,164322296,-440,-138044,63647,61,0c4cfe00,0.0,0.0,0.0,0.0,0.0,0.0
2026-05-25 08:38:38.673008,1779712718.673008,2272431,-1597573,164322296,-440,-138044,63647,61,0c4cfe00,0.0,0.0,0.0,0.0,0.0,0.0
2026-05-25 08:38:38.673866,1779712718.673866,2474611,-1824661,164360414,-15089,-104449,73407,61,0c4bfe00,0.0,0.0,0.0,0.0,0.0,0.0
2026-05-25 08:38:38.674658,1779712718.674658,2474611,-1824661,164360414,-15089,-104449,73407,61,0c4bfe00,0.0,0.0,0.0,0.0,0.0,0.0
2026-05-25 08:38:38.675618,1779712718.675618,2520251,-2032211,164442165,-59563,-34230,92325,61,0c4bfe00,0.0,0.0,0.0,0.0,0.0,0.0
2026-05-25 08:38:38.676401,1779712718.676401,2520251,-2032211,164442165,-59563,-34230,92325,61,0c4bfe00,0.0,0.0,0.0,0.0,0.0,0.0
2026-05-25 08:38:38.677029,1779712718.677029,2240400,-2075582,164398836,-42028,32301,122742,61,0c4bfe00,0.0,0.0,0.0,0.0,0.0,0.0
2026-05-25 08:38:38.677848,1779712718.677848,2240400,-2075582,164398836,-42028,32301,122742,61,0c4bfe00,0.0,0.0,0.0,0.0,0.0,0.0
2026-05-25 08:38:38.678979,1779712718.678979,1950780,-1909367,164327255,38993,44124,114358,61,0c4cfe00,0.0,0.0,0.0,0.0,0.0,0.0
2026-05-25 08:38:38.679763,1779712718.679763,1950780,-1909367,164327255,38993,44124,114358,61,0c4cfe00,0.0,0.0,0.0,0.0,0.0,0.0
2026-05-25 08:38:38.680379,1779712718.680379,1784544,-1722517,164140476,143700,5785,70811,61,0c4bfe00,0.0,0.0,0.0,0.0,0.0,0.0
2026-05-25 08:38:38.681161,1779712718.681161,1784544,-1722517,164140476,143700,5785,70811,61,0c4bfe00,0.0,0.0,0.0,0.0,0.0,0.0
2026-05-25 08:38:38.684013,1779712718.684013,1946186,-1565996,164049305,157645,-86072,38290,61,0c4bfe00,0.0,0.0,0.0,0.0,0.0,0.0
2026-05-25 08:38:38.684814,1779712718.684814,1946186,-1565996,164049305,157645,-86072,38290,61,0c4bfe00,0.0,0.0,0.0,0.0,0.0,0.0
2026-05-25 08:38:38.693938,1779712718.693938,2257043,-1580636,164094129,100359,-124579,27411,61,0c4bfe00,0.0,0.0,0.0,0.0,0.0,0.0
2026-05-25 08:38:38.694714,1779712718.694714,2257043,-1580636,164094129,100359,-124579,27411,61,0c4bfe00,0.0,0.0,0.0,0.0,0.0,0.0
2026-05-25 08:38:38.704686,1779712718.704686,2489216,-1666788,164361668,24320,-112313,56292,61,0c4bfe00,0.0,0.0,0.0,0.0,0.0,0.0
2026-05-25 08:38:38.705618,1779712718.705618,2489216,-1666788,164361668,24320,-112313,56292,61,0c4bfe00,0.0,0.0,0.0,0.0,0.0,0.0
2026-05-25 08:38:38.713834,1779712718.713834,2500950,-1766034,164454886,6103,-44180,120448,61,0c4bfe00,0.0,0.0,0.0,0.0,0.0,0.0
2026-05-25 08:38:38.714623,1779712718.714623,2500950,-1766034,164454886,6103,-44180,120448,61,0c4bfe00,0.0,0.0,0.0,0.0,0.0,0.0
2026-05-25 08:38:38.723896,1779712718.723896,2342375,-1781190,164339975,2615,-5439,158828,61,0c4bfe00,0.0,0.0,0.0,0.0,0.0,0.0
2026-05-25 08:38:38.724722,1779712718.724722,2342375,-1781190,164339975,2615,-5439,158828,61,0c4bfe00,0.0,0.0,0.0,0.0,0.0,0.0
2026-05-25 08:38:38.733802,1779712718.733802,2035144,-1750250,164155584,-19182,-23225,145327,61,0c4bfe00,0.0,0.0,0.0,0.0,0.0,0.0
2026-05-25 08:38:38.734627,1779712718.734627,2035144,-1750250,164155584,-19182,-23225,145327,61,0c4bfe00,0.0,0.0,0.0,0.0,0.0,0.0
2026-05-25 08:38:38.743940,1779712718.743940,1865859,-1693161,164036587,-50634,-95147,96957,61,0c4bfe00,0.0,0.0,0.0,0.0,0.0,0.0
2026-05-25 08:38:38.744990,1779712718.744990,1865859,-1693161,164036587,-50634,-95147,96957,61,0c4bfe00,0.0,0.0,0.0,0.0,0.0,0.0
2026-05-25 08:38:38.754079,1779712718.754079,1888400,-1732303,164169180,-42138,-181825,41918,61,0c4bfe00,0.0,0.0,0.0,0.0,0.0,0.0
2026-05-25 08:38:38.754933,1779712718.754933,1888400,-1732303,164169180,-42138,-181825,41918,61,0c4bfe00,0.0,0.0,0.0,0.0,0.0,0.0
2026-05-25 08:38:38.763663,1779712718.763663,2181938,-1743124,164361238,-28636,-202752,47955,61,0c4bfe00,0.0,0.0,0.0,0.0,0.0,0.0
2026-05-25 08:38:38.764497,1779712718.764497,2181938,-1743124,164361238,-28636,-202752,47955,61,0c4bfe00,0.0,0.0,0.0,0.0,0.0,0.0
2026-05-25 08:38:38.773710,1779712718.773710,2421582,-1743770,164541989,8667,-178749,56499,61,0c4bfe00,0.0,0.0,0.0,0.0,0.0,0.0
2026-05-25 08:38:38.774510,1779712718.774510,2421582,-1743770,164541989,8667,-178749,56499,61,0c4bfe00,0.0,0.0,0.0,0.0,0.0,0.0
2026-05-25 08:38:38.783865,1779712718.783865,2516429,-1643070,164494364,21250,-96734,108270,61,0c4bfe00,0.0,0.0,0.0,0.0,0.0,0.0
2026-05-25 08:38:38.784649,1779712718.784649,2516429,-1643070,164494364,21250,-96734,108270,61,0c4bfe00,0.0,0.0,0.0,0.0,0.0,0.0
2026-05-25 08:38:38.793960,1779712718.793960,2423318,-1522762,164365298,18706,-35833,121744,61,0c4bfe00,0.0,0.0,0.0,0.0,0.0,0.0
2026-05-25 08:38:38.794820,1779712718.794820,2423318,-1522762,164365298,18706,-35833,121744,61,0c4bfe00,0.0,0.0,0.0,0.0,0.0,0.0
2026-05-25 08:38:38.803736,1779712718.803736,2240876,-1457630,164208336,7035,-17995,89685,61,0c4bfe00,0.0,0.0,0.0,0.0,0.0,0.0
2026-05-25 08:38:38.804553,1779712718.804553,2240876,-1457630,164208336,7035,-17995,89685,61,0c4bfe00,0.0,0.0,0.0,0.0,0.0,0.0
2026-05-25 08:38:38.813812,1779712718.813812,2132374,-1533883,164206943,-14839,-48840,47894,61,0c4bfe00,0.0,0.0,0.0,0.0,0.0,0.0
2026-05-25 08:38:38.814604,1779712718.814604,2132374,-1533883,164206943,-14839,-48840,47894,61,0c4bfe00,0.0,0.0,0.0,0.0,0.0,0.0
2026-05-25 08:38:38.823988,1779712718.823988,2141493,-1751725,164288345,-4118,-52453,44664,61,0c4afe00,0.0,0.0,0.0,0.0,0.0,0.0
2026-05-25 08:38:38.825039,1779712718.825039,2141493,-1751725,164288345,-4118,-52453,44664,61,0c4afe00,0.0,0.0,0.0,0.0,0.0,0.0
2026-05-25 08:38:38.833960,1779712718.833960,2202844,-1938339,164321939,29563,-35819,74725,61,0c4bfe00,0.0,0.0,0.0,0.0,0.0,0.0
2026-05-25 08:38:38.835043,1779712718.835043,2202844,-1938339,164321939,29563,-35819,74725,61,0c4bfe00,0.0,0.0,0.0,0.0,0.0,0.0
2026-05-25 08:38:38.843713,1779712718.843713,2219360,-2050573,164325663,2518,-7874,117414,61,0c4bfe00,0.0,0.0,0.0,0.0,0.0,0.0
2026-05-25 08:38:38.844459,1779712718.844459,2219360,-2050573,164325663,2518,-7874,117414,61,0c4bfe00,0.0,0.0,0.0,0.0,0.0,0.0
2026-05-25 08:38:38.853744,1779712718.853744,2096459,-1974545,164234196,2953,-9207,116302,61,0c4bfe00,0.0,0.0,0.0,0.0,0.0,0.0
2026-05-25 08:38:38.854442,1779712718.854442,2096459,-1974545,164234196,2953,-9207,116302,61,0c4bfe00,0.0,0.0,0.0,0.0,0.0,0.0
2026-05-25 08:38:38.863662,1779712718.863662,2031024,-1854729,164183354,-14373,-48931,96931,61,0c4afe00,0.0,0.0,0.0,0.0,0.0,0.0
2026-05-25 08:38:38.864370,1779712718.864370,2031024,-1854729,164183354,-14373,-48931,96931,61,0c4afe00,0.0,0.0,0.0,0.0,0.0,0.0
2026-05-25 08:38:38.873794,1779712718.873794,2063895,-1731817,164217959,19311,-102458,38390,61,0c4afe00,0.0,0.0,0.0,0.0,0.0,0.0
2026-05-25 08:38:38.874450,1779712718.874450,2063895,-1731817,164217959,19311,-102458,38390,61,0c4afe00,0.0,0.0,0.0,0.0,0.0,0.0
2026-05-25 08:38:38.883605,1779712718.883605,2250838,-1636360,164278219,24805,-145110,29311,61,0c4afe00,0.0,0.0,0.0,0.0,0.0,0.0
2026-05-25 08:38:38.884287,1779712718.884287,2250838,-1636360,164278219,24805,-145110,29311,61,0c4afe00,0.0,0.0,0.0,0.0,0.0,0.0
2026-05-25 08:38:38.893798,1779712718.893798,2445018,-1591481,164464320,14488,-131058,42749,61,0c4afe00,0.0,0.0,0.0,0.0,0.0,0.0
2026-05-25 08:38:38.894698,1779712718.894698,2445018,-1591481,164464320,14488,-131058,42749,61,0c4afe00,0.0,0.0,0.0,0.0,0.0,0.0
2026-05-25 08:38:38.903784,1779712718.903784,2469911,-1583216,164507551,41587,-50518,100455,61,0c4afe00,0.0,0.0,0.0,0.0,0.0,0.0
2026-05-25 08:38:38.905313,1779712718.905313,2469911,-1583216,164507551,41587,-50518,100455,61,0c4afe00,0.0,0.0,0.0,0.0,0.0,0.0
2026-05-25 08:38:38.913740,1779712718.913740,2371458,-1600113,164480027,29843,-9331,128685,61,0c4afe00,0.0,0.0,0.0,0.0,0.0,0.0
2026-05-25 08:38:38.914417,1779712718.914417,2371458,-1600113,164480027,29843,-9331,128685,61,0c4afe00,0.0,0.0,0.0,0.0,0.0,0.0
2026-05-25 08:38:38.923891,1779712718.923891,2198405,-1648324,164349499,50386,11893,143231,61,0c4afe00,0.0,0.0,0.0,0.0,0.0,0.0
2026-05-25 08:38:38.924683,1779712718.924683,2198405,-1648324,164349499,50386,11893,143231,61,0c4afe00,0.0,0.0,0.0,0.0,0.0,0.0
2026-05-25 08:38:38.933609,1779712718.933609,2061056,-1672438,164170975,43011,-20939,109661,61,0c4afe00,0.0,0.0,0.0,0.0,0.0,0.0
2026-05-25 08:38:38.934428,1779712718.934428,2061056,-1672438,164170975,43011,-20939,109661,61,0c4afe00,0.0,0.0,0.0,0.0,0.0,0.0
2026-05-25 08:38:38.943782,1779712718.943782,2069879,-1778546,164218842,56137,-28708,66589,61,0c4afe00,0.0,0.0,0.0,0.0,0.0,0.0
2026-05-25 08:38:38.944663,1779712718.944663,2069879,-1778546,164218842,56137,-28708,66589,61,0c4afe00,0.0,0.0,0.0,0.0,0.0,0.0
2026-05-25 08:38:38.953777,1779712718.953777,2105504,-1869072,164216473,63801,-21555,58775,61,0c4afe00,0.0,0.0,0.0,0.0,0.0,0.0
2026-05-25 08:38:38.954379,1779712718.954379,2105504,-1869072,164216473,63801,-21555,58775,61,0c4afe00,0.0,0.0,0.0,0.0,0.0,0.0
2026-05-25 08:38:38.963828,1779712718.963828,2161212,-1938950,164312058,58913,-32672,60548,61,0c4afe00,0.0,0.0,0.0,0.0,0.0,0.0
2026-05-25 08:38:38.964693,1779712718.964693,2161212,-1938950,164312058,58913,-32672,60548,61,0c4afe00,0.0,0.0,0.0,0.0,0.0,0.0
2026-05-25 08:38:38.974061,1779712718.974061,2092145,-1825865,164190169,31919,-35340,96447,61,0c4afe00,0.0,0.0,0.0,0.0,0.0,0.0
2026-05-25 08:38:38.975054,1779712718.975054,2092145,-1825865,164190169,31919,-35340,96447,61,0c4afe00,0.0,0.0,0.0,0.0,0.0,0.0
2026-05-25 08:38:38.983943,1779712718.983943,2007230,-1613833,164201335,14186,-76944,104422,61,0c4afe00,0.0,0.0,0.0,0.0,0.0,0.0
2026-05-25 08:38:38.985027,1779712718.985027,2007230,-1613833,164201335,14186,-76944,104422,61,0c4afe00,0.0,0.0,0.0,0.0,0.0,0.0
2026-05-25 08:38:38.994260,1779712718.994260,2038444,-1512928,164200127,4605,-86940,94181,61,0c4afe00,0.0,0.0,0.0,0.0,0.0,0.0
2026-05-25 08:38:38.995971,1779712718.995971,2038444,-1512928,164200127,4605,-86940,94181,61,0c4afe00,0.0,0.0,0.0,0.0,0.0,0.0
2026-05-25 08:38:39.003910,1779712719.003910,2226482,-1498127,164300280,37960,-131183,44043,61,0c4afe00,0.0,0.0,0.0,0.0,0.0,0.0
2026-05-25 08:38:39.004744,1779712719.004744,2226482,-1498127,164300280,37960,-131183,44043,61,0c4afe00,0.0,0.0,0.0,0.0,0.0,0.0
2026-05-25 08:38:39.013884,1779712719.013884,2470593,-1661697,164402826,24497,-96739,48069,61,0c4afe00,0.0,0.0,0.0,0.0,0.0,0.0
2026-05-25 08:38:39.014925,1779712719.014925,2470593,-1661697,164402826,24497,-96739,48069,61,0c4afe00,0.0,0.0,0.0,0.0,0.0,0.0
2026-05-25 08:38:39.023830,1779712719.023830,2587669,-1795058,164441547,25506,-20390,69043,61,0c49fe00,0.0,0.0,0.0,0.0,0.0,0.0
2026-05-25 08:38:39.024650,1779712719.024650,2587669,-1795058,164441547,25506,-20390,69043,61,0c49fe00,0.0,0.0,0.0,0.0,0.0,0.0
2026-05-25 08:38:39.033733,1779712719.033733,2431691,-1899693,164438816,46368,44870,114987,61,0c49fe00,0.0,0.0,0.0,0.0,0.0,0.0
2026-05-25 08:38:39.034465,1779712719.034465,2431691,-1899693,164438816,46368,44870,114987,61,0c49fe00,0.0,0.0,0.0,0.0,0.0,0.0
2026-05-25 08:38:39.043822,1779712719.043822,2123315,-1879102,164285146,78095,92308,128242,61,0c49fe00,0.0,0.0,0.0,0.0,0.0,0.0
2026-05-25 08:38:39.044548,1779712719.044548,2123315,-1879102,164285146,78095,92308,128242,61,0c49fe00,0.0,0.0,0.0,0.0,0.0,0.0
2026-05-25 08:38:39.053922,1779712719.053922,1863610,-1795283,164163114,98334,25847,107220,61,0c49fe00,0.0,0.0,0.0,0.0,0.0,0.0
2026-05-25 08:38:39.054710,1779712719.054710,1863610,-1795283,164163114,98334,25847,107220,61,0c49fe00,0.0,0.0,0.0,0.0,0.0,0.0
2026-05-25 08:38:39.063926,1779712719.063926,1784889,-1684298,164065204,65939,-15667,72603,61,0c49fe00,0.0,0.0,0.0,0.0,0.0,0.0
2026-05-25 08:38:39.064857,1779712719.064857,1784889,-1684298,164065204,65939,-15667,72603,61,0c49fe00,0.0,0.0,0.0,0.0,0.0,0.0
2026-05-25 08:38:39.074041,1779712719.074041,1879529,-1627094,164097109,20591,-103157,58238,61,0c49fe00,0.0,0.0,0.0,0.0,0.0,0.0
2026-05-25 08:38:39.075018,1779712719.075018,1879529,-1627094,164097109,20591,-103157,58238,61,0c49fe00,0.0,0.0,0.0,0.0,0.0,0.0
