sys_datetime,unix_timestamp,raw_accel_x_lsb,raw_accel_y_lsb,raw_accel_z_lsb,raw_gyro_x_lsb,raw_gyro_y_lsb,raw_gyro_z_lsb,imu_type,imu_status_hex,veh_lat_acc_ms2,veh_long_acc_ms2,veh_vert_acc_ms2,veh_pitch_rate_degs,veh_roll_rate_degs,veh_yaw_rate_degs
2026-05-25 08:38:18.236642,1779712698.236642,2027654,-1749203,164514152,17337,-36088,83562,61,0d9bfe00,,,,,,
2026-05-25 08:38:18.237198,1779712698.237198,1941600,-1874789,164475503,91448,-52634,268961,61,0d9bfe00,,,,,,
2026-05-25 08:38:18.237746,1779712698.237746,2364297,-1539585,164405336,125947,15924,205431,61,0d9afe00,,,,,,
2026-05-25 08:38:18.238302,1779712698.238302,1790764,-1707528,164205895,104201,-20883,192250,61,0d9afe00,,,,,,
2026-05-25 08:38:18.238821,1779712698.238821,2412599,-1152138,164024325,-36492,-31837,92295,61,0d9afe00,,,,,,
2026-05-25 08:38:18.239370,1779712698.239370,1583274,-1901478,164354946,-16325,-84885,105096,61,0d9afe00,,,,,,
2026-05-25 08:38:18.239938,1779712698.239938,2521340,-1362163,164323785,-10739,-118677,98222,61,0d9afe00,,,,,,
2026-05-25 08:38:18.240464,1779712698.240464,1929040,-2031967,164325290,53475,-45088,61911,61,0d9afe00,,,,,,
2026-05-25 08:38:18.240980,1779712698.240980,2613873,-1233803,164478843,56752,-29080,143839,61,0d9afe00,,,,,,
2026-05-25 08:38:18.241521,1779712698.241521,1912267,-1887848,164173439,39463,-2114,81978,61,0d9afe00,,,,,,
2026-05-25 08:38:18.242057,1779712698.242057,2137183,-1293982,164351987,-51571,-156921,117559,61,0d9afe00,,,,,,
2026-05-25 08:38:18.242593,1779712698.242593,1982055,-1726441,164137893,-92705,-220413,-11419,61,0d9afe00,,,,,,
2026-05-25 08:38:18.243118,1779712698.243118,1970062,-1304818,164177614,-153034,-369786,-61339,61,0d9afe00,,,,,,
2026-05-25 08:38:18.243656,1779712698.243656,2059916,-1939437,164335176,-103400,-205763,-36053,61,0d9afe00,,,,,,
2026-05-25 08:38:18.244187,1779712698.244187,2039586,-1567143,164292677,-19626,-262471,-1614,61,0d9afe00,,,,,,
2026-05-25 08:38:18.244710,1779712698.244710,2288510,-2250648,164550684,-41745,-206263,41733,61,0d9afe00,,,,,,
2026-05-25 08:38:18.245233,1779712698.245233,2241381,-1531858,164160469,-34001,-178839,80212,61,0d99fe00,,,,,,
2026-05-25 08:38:18.245781,1779712698.245781,2321037,-2131475,164573449,-73506,-171999,107482,61,0d9afe00,,,,,,
2026-05-25 08:38:18.246297,1779712698.246297,2134307,-1418965,164251440,31712,-43001,83494,61,0d9afe00,,,,,,
2026-05-25 08:38:18.246809,1779712698.246809,2295782,-1884037,164339442,19811,-134221,62945,61,0d9afe00,,,,,,
2026-05-25 08:38:18.247322,1779712698.247322,2079298,-1284283,164220981,72377,-22833,72734,61,0d9afe00,,,,,,
2026-05-25 08:38:18.247836,1779712698.247836,2216039,-1750561,164292211,-6327,-143067,78759,61,0d9afe00,,,,,,
2026-05-25 08:38:18.248347,1779712698.248347,2000793,-1358229,164379728,24097,-43970,62877,61,0d99fe00,,,,,,
2026-05-25 08:38:18.248864,1779712698.248864,2079522,-1737855,164300202,-23136,-154082,71527,61,0d99fe00,,,,,,
2026-05-25 08:38:18.249384,1779712698.249384,2121031,-1472369,164253914,21948,-47237,85521,61,0d99fe00,,,,,,
2026-05-25 08:38:18.249902,1779712698.249902,2138146,-1828107,164332751,20312,-157430,63472,61,0d99fe00,,,,,,
2026-05-25 08:38:18.250428,1779712698.250428,2122163,-1666934,164293587,55577,-57478,98598,61,0d99fe00,,,,,,
2026-05-25 08:38:18.250974,1779712698.250974,2003550,-1926636,164414099,43702,-130888,116122,61,0d99fe00,,,,,,
2026-05-25 08:38:18.251500,1779712698.251500,2088044,-1712973,164243252,40370,-13797,115552,61,0d99fe00,,,,,,
2026-05-25 08:38:18.252077,1779712698.252077,1942708,-1817819,164346314,2631,-136150,29912,61,0d99fe00,,,,,,
2026-05-25 08:38:18.252664,1779712698.252664,2009449,-1565473,164265100,50508,-65801,19771,61,0d99fe00,,,,,,
2026-05-25 08:38:18.253303,1779712698.253303,1937251,-1706226,164368240,55918,-191740,10391,61,0d99fe00,,,,,,
2026-05-25 08:38:18.253854,1779712698.253854,2270522,-1623965,164348148,87950,-90042,61073,61,0d99fe00,,,,,,
2026-05-25 08:38:18.254423,1779712698.254423,2154951,-1710167,164323833,5521,-152158,53253,61,0d99fe00,,,,,,
2026-05-25 08:38:18.254960,1779712698.254960,2406833,-1781927,164540218,29200,-20696,124669,61,0d99fe00,,,,,,
2026-05-25 08:38:18.255541,1779712698.255541,2066399,-1784635,164419625,-6727,-23471,126817,61,0d99fe00,,,,,,
2026-05-25 08:38:18.256126,1779712698.256126,2245988,-1801994,164332784,12757,-2579,112668,61,0d99fe00,,,,,,
2026-05-25 08:38:18.256685,1779712698.256685,1891290,-1705590,164213470,20254,-6957,81043,61,0d99fe00,,,,,,
2026-05-25 08:38:18.257220,1779712698.257220,2049949,-1604062,164168806,20996,-74192,77381,61,0d99fe00,,,,,,
2026-05-25 08:38:18.257823,1779712698.257823,2324280,41018,164073778,-604471,-463239,-522082,61,0d99fe00,,,,,,
2026-05-25 08:38:18.258400,1779712698.258400,2092883,-4353486,164485625,-233318,-106990,-175192,61,0d99fe00,,,,,,
2026-05-25 08:38:18.258966,1779712698.258966,1913441,950688,163865900,-102181,-134682,-139159,61,0d99fe00,,,,,,
2026-05-25 08:38:18.259553,1779712698.259553,2435083,-5267399,164431216,271588,-461909,410730,61,0d98fe00,,,,,,
2026-05-25 08:38:18.260158,1779712698.260158,2411108,1709745,164220886,372528,131237,428377,61,0d98fe00,,,,,,
2026-05-25 08:38:18.260741,1779712698.260741,2636537,-4573223,164410225,-199825,-463790,43417,61,0d98fe00,,,,,,
2026-05-25 08:38:18.261342,1779712698.261342,2766113,158715,164437060,158804,727844,299229,61,0d98fe00,,,,,,
2026-05-25 08:38:18.262076,1779712698.262076,1649501,-2838818,164920271,-350089,30275,-95312,61,0d98fe00,,,,,,
2026-05-25 08:38:18.262803,1779712698.262803,2828038,-170568,164233974,37126,436689,-129903,61,0d98fe00,,,,,,
2026-05-25 08:38:18.263591,1779712698.263591,1414306,-2277262,164972187,-200355,-12558,-330060,61,0d98fe00,,,,,,
2026-05-25 08:38:18.264352,1779712698.264352,1874333,-1116077,163551922,155703,111472,-109143,61,0d98fe00,,,,,,
2026-05-25 08:38:18.264920,1779712698.264920,732725,-3072203,164721091,177704,-264837,-56644,61,0d98fe00,,,,,,
2026-05-25 08:38:18.265463,1779712698.265463,1328900,-1999311,163676007,453046,-163889,175159,61,0d98fe00,,,,,,
2026-05-25 08:38:18.265986,1779712698.265986,1397971,-2545877,164055624,299168,-483506,101461,61,0d98fe00,,,,,,
2026-05-25 08:38:18.266565,1779712698.266565,2288189,-1365313,163824375,105787,-405259,75153,61,0d98fe00,,,,,,
2026-05-25 08:38:18.267095,1779712698.267095,2331869,-1340825,163992563,-195649,-608258,-222481,61,0d98fe00,,,,,,
2026-05-25 08:38:18.267646,1779712698.267646,2677219,-467576,164646656,-274356,-631289,-405932,61,0d98fe00,,,,,,
2026-05-25 08:38:18.268261,1779712698.268261,2710327,-454009,164399543,-289938,-608905,-531836,61,0d98fe00,,,,,,
2026-05-25 08:38:18.268975,1779712698.268975,3014979,-518117,164693816,-342331,-556036,-508236,61,0d98fe00,,,,,,
2026-05-25 08:38:18.269718,1779712698.269718,3062678,-1057539,164487099,-392465,-248546,-339572,61,0d98fe00,,,,,,
2026-05-25 08:38:18.270490,1779712698.270490,2916106,-1588633,164351394,-476615,-113145,-251779,61,0d98fe00,,,,,,
2026-05-25 08:38:18.271191,1779712698.271191,2253573,-2083234,164289075,-508307,48434,-196966,61,0d98fe00,,,,,,
2026-05-25 08:38:18.271969,1779712698.271969,1566905,-2413931,163878408,-515711,-152336,-355857,61,0d98fe00,,,,,,
2026-05-25 08:38:18.272746,1779712698.272746,1121006,-1984302,163969887,-455804,-383540,-596551,61,0d98fe00,,,,,,
2026-05-25 08:38:18.273524,1779712698.273524,1588196,-2333381,164082101,-373126,-502615,-685582,61,0d98fe00,,,,,,
2026-05-25 08:38:18.274302,1779712698.274302,2246221,-2037909,164482250,-287450,-309911,-590053,61,0d98fe00,,,,,,
2026-05-25 08:38:18.275013,1779712698.275013,3031206,-2677449,164937612,-289938,-54215,-376187,61,0d98fe00,,,,,,
2026-05-25 08:38:18.275815,1779712698.275815,3299240,-1849112,164983354,-270866,346688,-52466,61,0d97fe00,,,,,,
2026-05-25 08:38:18.276658,1779712698.276658,2913612,-1806161,164772848,-292311,593860,120250,61,0d97fe00,,,,,,
2026-05-25 08:38:18.277230,1779712698.277230,2023917,-1269670,164202611,-219833,672002,169918,61,0d97fe00,,,,,,
2026-05-25 08:38:18.277825,1779712698.277825,1070083,-1184320,163823053,-227276,397076,-46705,61,0d97fe00,,,,,,
2026-05-25 08:38:18.278391,1779712698.278391,555258,-1538812,163642863,-156624,-202368,-301896,61,0d97fe00,,,,,,
2026-05-25 08:38:18.278969,1779712698.278969,1033053,-1906369,163899647,-105956,-477202,-352928,61,0d97fe00,,,,,,
2026-05-25 08:38:18.279549,1779712698.279549,1330188,-2710047,164010754,-19014,-613686,-215586,61,0d97fe00,,,,,,
2026-05-25 08:38:18.280081,1779712698.280081,2457990,-2553837,164291166,70496,-458081,20807,61,0d97fe00,,,,,,
2026-05-25 08:38:18.280647,1779712698.280647,2307646,-2135268,164238552,144079,-359184,34650,61,0d97fe00,,,,,,
2026-05-25 08:38:18.281199,1779712698.281199,2261692,-1342218,164332869,171769,-603098,-266736,61,0d97fe00,,,,,,
2026-05-25 08:38:18.281773,1779712698.281773,2174694,-752466,164449403,42496,-614668,-578514,61,0d97fe00,,,,,,
2026-05-25 08:38:18.282329,1779712698.282329,2348907,-623055,164337429,-153008,-678123,-800044,61,0d97fe00,,,,,,
2026-05-25 08:38:18.282960,1779712698.282960,2790192,-1218757,164736573,-357375,-481412,-724822,61,0d97fe00,,,,,,
2026-05-25 08:38:18.283551,1779712698.283551,2642038,-1728664,164635448,-421096,-368664,-506058,61,0d97fe00,,,,,,
2026-05-25 08:38:18.284102,1779712698.284102,1970337,-1942541,164570211,-441631,-521578,-457961,61,0d97fe00,,,,,,
2026-05-25 08:38:18.284686,1779712698.284686,1708804,-2056439,164273606,-413350,-521612,-412543,61,0d97fe00,,,,,,
2026-05-25 08:38:18.285248,1779712698.285248,1007229,-2466846,163770104,-271857,-596757,-471176,61,0d96fe00,,,,,,
2026-05-25 08:38:18.285828,1779712698.285828,1830000,-3071477,164309276,-104153,-539525,-356800,61,0d96fe00,,,,,,
2026-05-25 08:38:18.286396,1779712698.286396,2091503,-3237997,164374461,206575,-527214,-220590,61,0d96fe00,,,,,,
2026-05-25 08:38:18.286950,1779712698.286950,3323362,-2844027,165030363,339768,-312224,101980,61,0d96fe00,,,,,,
2026-05-25 08:38:18.287528,1779712698.287528,3140176,-1627399,164466157,457905,-82240,410240,61,0d96fe00,,,,,,
2026-05-25 08:38:18.288071,1779712698.288071,2471194,-948726,164355082,376684,57372,503986,61,0d97fe00,,,,,,
2026-05-25 08:38:18.288645,1779712698.288645,2053256,403171,164181148,143720,-27302,325131,61,0d96fe00,,,,,,
2026-05-25 08:38:18.289170,1779712698.289170,1767863,273548,163817337,38758,-321321,-109803,61,0d96fe00,,,,,,
2026-05-25 08:38:18.289731,1779712698.289731,2365288,-69755,164385090,-117226,-558221,-466220,61,0d96fe00,,,,,,
2026-05-25 08:38:18.290270,1779712698.290270,2376278,-1884531,164155810,-131472,-576481,-480769,61,0d96fe00,,,,,,
2026-05-25 08:38:18.290830,1779712698.290830,2364730,-2654748,164696908,-163817,-434110,-273070,61,0d96fe00,,,,,,
2026-05-25 08:38:18.291373,1779712698.291373,2341908,-2486902,164194323,444,-428128,-176767,61,0d96fe00,,,,,,
2026-05-25 08:38:18.291911,1779712698.291911,1826702,-2798692,164162912,173881,-357753,-63116,61,0d96fe00,,,,,,
2026-05-25 08:38:18.292460,1779712698.292460,1559661,-2124809,163829618,401428,-683164,-220052,61,0d96fe00,,,,,,
2026-05-25 08:38:18.293004,1779712698.293004,2038666,-1952809,164234416,336037,-645550,-263260,61,0d96fe00,,,,,,
2026-05-25 08:38:18.293570,1779712698.293570,2472104,-1222017,164246656,448354,-907721,-436728,61,0d96fe00,,,,,,
2026-05-25 08:38:18.294105,1779712698.294105,3019771,-1755526,164976566,318828,-730290,-288257,61,0d96fe00,,,,,,
2026-05-25 08:38:18.294661,1779712698.294661,2783565,-1607804,165063440,319694,-318857,-59801,61,0d96fe00,,,,,,
2026-05-25 08:38:18.295184,1779712698.295184,2351038,-1784761,164681595,327218,24039,63499,61,0d96fe00,,,,,,
2026-05-25 08:38:18.295735,1779712698.295735,1916795,-1775179,164923381,73580,137955,-43297,61,0d96fe00,,,,,,
2026-05-25 08:38:18.296259,1779712698.296259,1379863,-1935173,163849519,22344,9880,-372961,61,0d96fe00,,,,,,
2026-05-25 08:38:18.296799,1779712698.296799,1194096,-2319153,164087294,-125742,-417834,-820643,61,0d96fe00,,,,,,
2026-05-25 08:38:18.297342,1779712698.297342,1847271,-3032885,164306745,-60024,-58678,-641361,61,0d96fe00,,,,,,
2026-05-25 08:38:18.297893,1779712698.297893,1637242,-2267757,164337279,-14860,-240950,-588477,61,0d96fe00,,,,,,
2026-05-25 08:38:18.298596,1779712698.298596,2084329,-2719522,163925178,425906,-262821,-433542,61,0d95fe00,,,,,,
2026-05-25 08:38:18.299116,1779712698.299116,2726151,-622329,164272093,385844,-342720,-380204,61,0d96fe00,,,,,,
2026-05-25 08:38:18.299685,1779712698.299685,1514280,-1391942,163817709,389884,-62637,-405938,61,0d96fe00,,,,,,
2026-05-25 08:38:18.300208,1779712698.300208,4369774,145981,165277072,-15736,-57839,-240421,61,0d96fe00,,,,,,
2026-05-25 08:38:18.300736,1779712698.300736,1812719,-1177972,164730779,-175807,331349,-90873,61,0d95fe00,,,,,,
2026-05-25 08:38:18.301268,1779712698.301268,4229065,-1502280,165557689,-591986,-27459,-198780,61,0d95fe00,,,,,,
2026-05-25 08:38:18.301808,1779712698.301808,2018659,-1981979,164100376,-586986,943430,128590,61,0d95fe00,,,,,,
2026-05-25 08:38:18.302339,1779712698.302339,3185612,-1832297,163910315,-814625,474388,210145,61,0d96fe00,,,,,,
2026-05-25 08:38:18.302867,1779712698.302867,1164710,-1893872,163806283,-539773,670309,455441,61,0d95fe00,,,,,,
2026-05-25 08:38:18.303413,1779712698.303413,1634553,-1947507,163461664,-399859,123639,300749,61,0d96fe00,,,,,,
2026-05-25 08:38:18.303935,1779712698.303935,1981908,-1929885,164680809,-178622,267662,778405,61,0d95fe00,,,,,,
2026-05-25 08:38:18.304459,1779712698.304459,2603869,-1130209,163956123,-201704,-204299,457504,61,0d95fe00,,,,,,
2026-05-25 08:38:18.304986,1779712698.304986,2880175,-1720938,164582385,-125881,-113989,226192,61,0d95fe00,,,,,,
2026-05-25 08:38:18.305510,1779712698.305510,2008426,-31409,164031279,-346932,-121040,-30574,61,0d95fe00,,,,,,
2026-05-25 08:38:18.306015,1779712698.306015,1941722,-1426464,163718796,14938,-209756,117706,61,0d95fe00,,,,,,
2026-05-25 08:38:18.306558,1779712698.306558,1510355,-628074,164155211,19199,-559279,43338,61,0d95fe00,,,,,,
2026-05-25 08:38:18.307104,1779712698.307104,1613712,-1851631,163717250,75462,-672770,-106580,61,0d95fe00,,,,,,
2026-05-25 08:38:18.307654,1779712698.307654,1661937,-2654785,164629219,-52221,-829753,-243099,61,0d94fe00,,,,,,
2026-05-25 08:38:18.308180,1779712698.308180,2112801,-3186234,164501220,-113936,-707104,-287653,61,0d95fe00,,,,,,
2026-05-25 08:38:18.308735,1779712698.308735,2213182,-3328724,164511033,-53554,-775807,-298637,61,0d95fe00,,,,,,
2026-05-25 08:38:18.309271,1779712698.309271,2425848,-2946838,164519852,142169,-475104,-88746,61,0d95fe00,,,,,,
2026-05-25 08:38:18.309771,1779712698.309771,2593944,-2363053,164098589,435601,-248179,168851,61,0d95fe00,,,,,,
2026-05-25 08:38:18.310288,1779712698.310288,2950027,-1650587,164901497,504926,23198,357019,61,0d94fe00,,,,,,
2026-05-25 08:38:18.310789,1779712698.310789,3237087,-1130929,164602267,586144,300827,461993,61,0d94fe00,,,,,,
2026-05-25 08:38:18.311298,1779712698.311298,2954620,-811796,164985077,453075,505108,464973,61,0d94fe00,,,,,,
2026-05-25 08:38:18.311827,1779712698.311827,2378523,-706416,164387508,323935,702418,405272,61,0d95fe00,,,,,,
2026-05-25 08:38:18.312337,1779712698.312337,1845889,-754357,163781352,163095,486282,231004,61,0d95fe00,,,,,,
2026-05-25 08:38:18.312842,1779712698.312842,1435721,-1130334,163684533,138108,289154,77247,61,0d94fe00,,,,,,
2026-05-25 08:38:18.313352,1779712698.313352,1649177,-2056335,163507232,177301,26611,77808,61,0d94fe00,,,,,,
2026-05-25 08:38:18.313880,1779712698.313880,2042194,-2658231,164346371,287436,-33177,183008,61,0d94fe00,,,,,,
2026-05-25 08:38:18.314396,1779712698.314396,2649785,-2907925,164475497,309807,63520,356745,61,0d94fe00,,,,,,
2026-05-25 08:38:18.314898,1779712698.314898,2596609,-2745800,164762631,331186,138206,525803,61,0d94fe00,,,,,,
2026-05-25 08:38:18.315418,1779712698.315418,2385687,-2108486,164747295,279243,397883,676077,61,0d94fe00,,,,,,
2026-05-25 08:38:18.315918,1779712698.315918,2135046,-1320414,164314858,133706,264773,552626,61,0d94fe00,,,,,,
2026-05-25 08:38:18.316419,1779712698.316419,2328943,-800516,164373693,9726,372742,459467,61,0d94fe00,,,,,,
2026-05-25 08:38:18.316947,1779712698.316947,2236495,-651385,163944492,-151733,73212,178684,61,0d94fe00,,,,,,
2026-05-25 08:38:18.317465,1779712698.317465,2362383,-1081198,164216710,-162833,70805,115666,61,0d94fe00,,,,,,
2026-05-25 08:38:18.317969,1779712698.317969,2425724,-1473098,164354474,-96475,94136,197392,61,0d94fe00,,,,,,
2026-05-25 08:38:18.318525,1779712698.318525,2304989,-2022960,164397796,98299,467956,454961,61,0d94fe00,,,,,,
2026-05-25 08:38:18.319133,1779712698.319133,2482650,-2432720,164479276,190280,575957,586170,61,0d94fe00,,,,,,
2026-05-25 08:38:18.319690,1779712698.319690,1728533,-2860542,164526659,170803,864962,641438,61,0d94fe00,,,,,,
2026-05-25 08:38:18.320315,1779712698.320315,2656957,-2662502,164696725,51571,812822,611358,61,0d94fe00,,,,,,
2026-05-25 08:38:18.320863,1779712698.320863,2033678,-2583762,164436280,96621,1032424,627273,61,0d94fe00,,,,,,
2026-05-25 08:38:18.321405,1779712698.321405,2707083,-2281107,164281927,237245,1001292,739689,61,0d94fe00,,,,,,
2026-05-25 08:38:18.321952,1779712698.321952,1730013,-1071410,163980112,394733,975699,707591,61,0d94fe00,,,,,,
2026-05-25 08:38:18.322545,1779712698.322545,1888054,-1310848,164268183,389390,686737,655529,61,0d94fe00,,,,,,
2026-05-25 08:38:18.323063,1779712698.323063,527757,-553555,163812561,365029,443795,338866,61,0d94fe00,,,,,,
2026-05-25 08:38:18.323634,1779712698.323634,1078961,-1807433,163875410,127715,4672,143667,61,0d94fe00,,,,,,
2026-05-25 08:38:18.324181,1779712698.324181,1064265,-1404714,163480119,109996,-176827,59453,61,0d93fe00,,,,,,
2026-05-25 08:38:18.324702,1779712698.324702,1551007,-2996145,164185500,68763,-400087,164860,61,0d93fe00,,,,,,
2026-05-25 08:38:18.325220,1779712698.325220,1571387,-2947062,164459197,321649,-211995,418653,61,0d93fe00,,,,,,
2026-05-25 08:38:18.325789,1779712698.325789,2276000,-2705133,164707296,375774,-214062,513964,61,0d93fe00,,,,,,
2026-05-25 08:38:18.326356,1779712698.326356,2868387,-1465300,164383601,336335,-50212,424341,61,0d93fe00,,,,,,
2026-05-25 08:38:18.326921,1779712698.326921,2465104,-506620,163695438,237419,-244213,31255,61,0d93fe00,,,,,,
2026-05-25 08:38:18.327453,1779712698.327453,2952241,-59474,164347983,42823,-509670,-258853,61,0d93fe00,,,,,,
2026-05-25 08:38:18.327978,1779712698.327978,2325772,-220476,164070686,71981,-433380,-383645,61,0d93fe00,,,,,,
2026-05-25 08:38:18.328557,1779712698.328557,3104236,-274488,164594296,-44385,-465863,-339831,61,0d93fe00,,,,,,
2026-05-25 08:38:18.329115,1779712698.329115,2908634,-792875,164412738,-220452,228337,44765,61,0d93fe00,,,,,,
2026-05-25 08:38:18.329663,1779712698.329663,2779948,-1725805,164487330,-477458,215754,245341,61,0d93fe00,,,,,,
2026-05-25 08:38:18.330199,1779712698.330199,2359572,-2069093,164639878,-413627,485660,358925,61,0d93fe00,,,,,,
2026-05-25 08:38:18.330767,1779712698.330767,1657024,-2416683,164026124,-383592,340293,153264,61,0d93fe00,,,,,,
2026-05-25 08:38:18.331336,1779712698.331336,1230100,-2777042,163870951,-45112,57016,-22084,61,0d93fe00,,,,,,
2026-05-25 08:38:18.331896,1779712698.331896,1159350,-2975898,163981022,11551,-165150,-216170,61,0d92fe00,,,,,,
2026-05-25 08:38:18.332445,1779712698.332445,1686269,-2764103,164171954,288899,-343780,-194745,61,0d92fe00,,,,,,
2026-05-25 08:38:18.332997,1779712698.332997,2278796,-2352112,164641456,266835,-132209,-4374,61,0d92fe00,,,,,,
2026-05-25 08:38:18.333585,1779712698.333585,2598112,-1418903,164254195,198041,46946,194779,61,0d92fe00,,,,,,
2026-05-25 08:38:18.334168,1779712698.334168,2562162,-922667,164337531,4735,107613,291958,61,0d93fe00,,,,,,
2026-05-25 08:38:18.334718,1779712698.334718,2436670,-186466,164430604,-4904,127446,259074,61,0d93fe00,,,,,,
2026-05-25 08:38:18.335232,1779712698.335232,2520212,-716870,164371417,34627,74436,174265,61,0d93fe00,,,,,,
2026-05-25 08:38:18.335772,1779712698.335772,2727363,-1258169,164480967,160294,95539,148236,61,0d93fe00,,,,,,
2026-05-25 08:38:18.336294,1779712698.336294,2591249,-2262131,164270418,225136,152081,215429,61,0d93fe00,,,,,,
2026-05-25 08:38:18.336819,1779712698.336819,2169663,-2523812,164399950,253875,109963,253904,61,0d93fe00,,,,,,
2026-05-25 08:38:18.337390,1779712698.337390,1534251,-2598209,164170755,280248,154878,226227,61,0d92fe00,,,,,,
2026-05-25 08:38:18.337898,1779712698.337898,1067134,-1933235,163841436,124763,-22955,33704,61,0d93fe00,,,,,,
2026-05-25 08:38:18.338436,1779712698.338436,1421073,-1719234,163741619,30743,-175090,-67951,61,0d92fe00,,,,,,
2026-05-25 08:38:18.338993,1779712698.338993,1767193,-1092433,164067581,-67718,-339327,-145844,61,0d92fe00,,,,,,
2026-05-25 08:38:18.339570,1779712698.339570,2585021,-1169354,164661773,-126700,-429504,-154045,61,0d92fe00,,,,,,
2026-05-25 08:38:18.340138,1779712698.340138,2843737,-1060685,164696278,-135070,-204421,12914,61,0d92fe00,,,,,,
2026-05-25 08:38:18.340693,1779712698.340693,2709529,-1650822,164626428,-166254,-182003,110082,61,0d92fe00,,,,,,
2026-05-25 08:38:18.341202,1779712698.341202,2436289,-792232,163986077,16748,428499,412332,61,0d92fe00,,,,,,
2026-05-25 08:38:18.341739,1779712698.341739,1806905,-2272553,164201347,-100518,-167254,268216,61,0d92fe00,,,,,,
2026-05-25 08:38:18.342283,1779712698.342283,1692253,-1680405,164144880,-147155,79057,49309,61,0d92fe00,,,,,,
2026-05-25 08:38:18.342835,1779712698.342835,1029888,-2672232,163717134,-414280,-888292,-623555,61,0d92fe00,,,,,,
2026-05-25 08:38:18.343372,1779712698.343372,1743919,-2057336,164264837,-188057,-326528,-328851,61,0d92fe00,,,,,,
2026-05-25 08:38:18.343914,1779712698.343914,1609181,-2330854,164003589,-193010,-778373,-233546,61,0d92fe00,,,,,,
2026-05-25 08:38:18.344505,1779712698.344505,2289586,-1424758,164153600,-51376,-631431,-135687,61,0d92fe00,,,,,,
2026-05-25 08:38:18.345046,1779712698.345046,2066144,-1066908,164252680,-184989,-839936,-215059,61,0d92fe00,,,,,,
2026-05-25 08:38:18.345618,1779712698.345618,2097212,-798788,164063553,-319316,-794657,-234268,61,0d92fe00,,,,,,
2026-05-25 08:38:18.346206,1779712698.346206,2288874,-896210,164824035,-412104,-805337,-354974,61,0d92fe00,,,,,,
2026-05-25 08:38:18.346803,1779712698.346803,2598320,-1765995,164580609,-497956,-628006,-357061,61,0d92fe00,,,,,,
2026-05-25 08:38:18.347430,1779712698.347430,2957012,-2172448,164874431,-484999,-422269,-223626,61,0d92fe00,,,,,,
2026-05-25 08:38:18.347964,1779712698.347964,2830801,-2920052,164562536,-342296,-190154,8565,61,0d92fe00,,,,,,
2026-05-25 08:38:18.348533,1779712698.348533,2478857,-2872179,164516447,-70510,35244,238727,61,0d91fe00,,,,,,
2026-05-25 08:38:18.349062,1779712698.349062,1804908,-2088144,164040934,181008,-78321,134621,61,0d91fe00,,,,,,
2026-05-25 08:38:18.349621,1779712698.349621,1588836,-1316455,163734058,101828,-405894,-225751,61,0d92fe00,,,,,,
2026-05-25 08:38:18.350175,1779712698.350175,1357825,-830695,163795128,33305,-635065,-541601,61,0d92fe00,,,,,,
2026-05-25 08:38:18.350739,1779712698.350739,1688689,-1021276,164049449,-78411,-813633,-657871,61,0d91fe00,,,,,,
2026-05-25 08:38:18.351278,1779712698.351278,2521014,-1633370,164621572,40044,-527883,-249863,61,0d91fe00,,,,,,
2026-05-25 08:38:18.351830,1779712698.351830,3008950,-1762107,164555196,51381,-353768,86287,61,0d91fe00,,,,,,
2026-05-25 08:38:18.352409,1779712698.352409,3157914,-1960910,164744602,-16024,-169001,245843,61,0d92fe00,,,,,,
2026-05-25 08:38:18.352985,1779712698.352985,2330734,-1790687,164380989,-103955,-218408,72130,61,0d91fe00,,,,,,
2026-05-25 08:38:18.353563,1779712698.353563,1682930,-2030223,164355152,-92763,-368796,-229753,61,0d91fe00,,,,,,
2026-05-25 08:38:18.354090,1779712698.354090,1467503,-2244952,164184131,37828,-475967,-419964,61,0d91fe00,,,,,,
2026-05-25 08:38:18.354654,1779712698.354654,2101337,-2652255,164207465,192322,-402687,-273274,61,0d91fe00,,,,,,
2026-05-25 08:38:18.355187,1779712698.355187,2483267,-2469202,164447679,299643,-201491,15429,61,0d91fe00,,,,,,
2026-05-25 08:38:18.355743,1779712698.355743,2508960,-2218205,164459404,221846,-26504,225348,61,0d91fe00,,,,,,
2026-05-25 08:38:18.356343,1779712698.356343,1788940,-1367293,164189141,210584,6303,219918,61,0d91fe00,,,,,,
2026-05-25 08:38:18.356880,1779712698.356880,1263158,-773829,163726138,110484,-308228,-63787,61,0d91fe00,,,,,,
2026-05-25 08:38:18.357456,1779712698.357456,1437532,-626965,163721559,205075,-680437,-332087,61,0d91fe00,,,,,,
2026-05-25 08:38:18.358023,1779712698.358023,2339598,-1024658,164208343,203403,-886218,-461546,61,0d90fe00,,,,,,
2026-05-25 08:38:18.358597,1779712698.358597,3256272,-1800386,164698576,129342,-787692,-364174,61,0d90fe00,,,,,,
2026-05-25 08:38:18.359162,1779712698.359162,3614809,-2357844,165030652,-20724,-341882,-46395,61,0d90fe00,,,,,,
2026-05-25 08:38:18.359758,1779712698.359758,2774851,-2284499,164691101,-134260,-95154,102224,61,0d90fe00,,,,,,
2026-05-25 08:38:18.360328,1779712698.360328,1830706,-1913369,164314599,-160036,11901,73417,61,0d90fe00,,,,,,
2026-05-25 08:38:18.360902,1779712698.360902,913598,-1467212,163607216,-65501,-343098,-272976,61,0d90fe00,,,,,,
2026-05-25 08:38:18.361476,1779712698.361476,1322797,-1294221,163555438,3228,-664234,-601565,61,0d90fe00,,,,,,
2026-05-25 08:38:18.362028,1779712698.362028,2052121,-1522596,163778273,2838,-952941,-729691,61,0d90fe00,,,,,,
2026-05-25 08:38:18.362609,1779712698.362609,2980386,-1897730,164426774,-76459,-836891,-513744,61,0d90fe00,,,,,,
2026-05-25 08:38:18.363172,1779712698.363172,2856809,-2021639,164677879,-107004,-591414,-181766,61,0d90fe00,,,,,,
2026-05-25 08:38:18.363778,1779712698.363778,2934170,-1657104,164704704,-50882,-332125,115804,61,0d90fe00,,,,,,
2026-05-25 08:38:18.364360,1779712698.364360,2153514,-1397105,164398005,5597,-259859,72364,61,0d90fe00,,,,,,
2026-05-25 08:38:18.364928,1779712698.364928,2521067,-1289644,164307989,-2351,-328349,-162474,61,0d90fe00,,,,,,
2026-05-25 08:38:18.365501,1779712698.365501,2574417,-1762055,164522759,54764,-163217,-247227,61,0d90fe00,,,,,,
2026-05-25 08:38:18.366063,1779712698.366063,3164860,-2237886,164717789,53396,2777,-155913,61,0d90fe00,,,,,,
2026-05-25 08:38:18.366643,1779712698.366643,2823641,-2729669,164729529,113950,293477,103068,61,0d90fe00,,,,,,
2026-05-25 08:38:18.367201,1779712698.367201,2073921,-2315640,164207263,197793,373946,280570,61,0d90fe00,,,,,,
2026-05-25 08:38:18.367769,1779712698.367769,1077466,-1942678,163772800,293971,248404,315503,61,0d90fe00,,,,,,
2026-05-25 08:38:18.368320,1779712698.368320,961500,-1384710,163633106,322047,12503,214723,61,0d90fe00,,,,,,
2026-05-25 08:38:18.368870,1779712698.368870,1705225,-1287885,163621646,276064,-160785,88604,61,0d90fe00,,,,,,
2026-05-25 08:38:18.369428,1779712698.369428,2830522,-1684897,164484880,127532,-216411,85838,61,0d90fe00,,,,,,
2026-05-25 08:38:18.369979,1779712698.369979,3404656,-1925634,164900477,52705,96904,283544,61,0d90fe00,,,,,,
2026-05-25 08:38:18.370549,1779712698.370549,3225865,-1727680,165045895,92679,269783,412223,61,0d90fe00,,,,,,
2026-05-25 08:38:18.371109,1779712698.371109,2487970,-1429220,164676566,182444,517661,478989,61,0d8ffe00,,,,,,
2026-05-25 08:38:18.371668,1779712698.371668,1961743,-1134809,163902221,291293,549227,411659,61,0d8ffe00,,,,,,
2026-05-25 08:38:18.372249,1779712698.372249,1464229,-1473430,163824803,386800,495437,307575,61,0d8ffe00,,,,,,
2026-05-25 08:38:18.372820,1779712698.372820,1860099,-1703529,163974395,370165,329080,225323,61,0d8ffe00,,,,,,
2026-05-25 08:38:18.373395,1779712698.373395,1854414,-2455158,164303302,343017,310033,257084,61,0d8ffe00,,,,,,
2026-05-25 08:38:18.373967,1779712698.373967,2375503,-2346722,164380390,331617,264736,428228,61,0d8ffe00,,,,,,
2026-05-25 08:38:18.374553,1779712698.374553,1798157,-2362011,164321149,388702,491515,638343,61,0d8ffe00,,,,,,
2026-05-25 08:38:18.375130,1779712698.375130,2146799,-1465068,164491140,366861,407005,718975,61,0d8ffe00,,,,,,
2026-05-25 08:38:18.375713,1779712698.375713,2049660,-1041194,164278250,286254,413847,497075,61,0d8ffe00,,,,,,
2026-05-25 08:38:18.376290,1779712698.376290,2499065,-864955,164082383,244452,155307,149419,61,0d8ffe00,,,,,,
2026-05-25 08:38:18.376865,1779712698.376865,2349713,-1132323,164095414,225757,98236,-59493,61,0d8ffe00,,,,,,
2026-05-25 08:38:18.377449,1779712698.377449,2708625,-1730475,164607600,298747,340733,209520,61,0d8ffe00,,,,,,
2026-05-25 08:38:18.378035,1779712698.378035,2194799,-1934127,164501301,376780,637260,518397,61,0d8ffe00,,,,,,
2026-05-25 08:38:18.378620,1779712698.378620,2348473,-2178845,164379097,352885,854497,746993,61,0d8ffe00,,,,,,
2026-05-25 08:38:18.379207,1779712698.379207,1278462,-1800397,163483553,317980,458618,505921,61,0d8ffe00,,,,,,
2026-05-25 08:38:18.379790,1779712698.379790,1352001,-1833862,163900222,229309,46468,174456,61,0d8ffe00,,,,,,
2026-05-25 08:38:18.380380,1779712698.380380,878107,-1764167,163866863,363141,-250287,-104999,61,0d8ffe00,,,,,,
2026-05-25 08:38:18.380967,1779712698.380967,1855738,-1931842,164391800,478770,-395847,-237797,61,0d8ffe00,,,,,,
2026-05-25 08:38:18.381551,1779712698.381551,2861903,-2050250,164800017,390116,-255293,-76406,61,0d8ffe00,,,,,,
2026-05-25 08:38:18.382139,1779712698.382139,3652599,-1887168,164829289,125754,116991,210462,61,0d8ffe00,,,,,,
2026-05-25 08:38:18.382728,1779712698.382728,3579130,-1463008,164901318,-132437,532429,482983,61,0d8ffe00,,,,,,
2026-05-25 08:38:18.383325,1779712698.383325,2731812,-1065159,164301366,-279019,943973,568228,61,0d8efe00,,,,,,
2026-05-25 08:38:18.383916,1779712698.383916,1828336,-703711,163957914,-265168,729195,342712,61,0d8efe00,,,,,,
2026-05-25 08:38:18.384510,1779712698.384510,1393479,-913653,163931614,-190682,493182,42602,61,0d8efe00,,,,,,
2026-05-25 08:38:18.385083,1779712698.385083,1194106,-1551344,163849886,2212,-96081,-261157,61,0d8efe00,,,,,,
2026-05-25 08:38:18.385669,1779712698.385669,1426203,-2579888,164271338,100379,-311518,-265485,61,0d8efe00,,,,,,
2026-05-25 08:38:18.386250,1779712698.386250,1494491,-3167899,164186402,70907,-465078,-80474,61,0d8efe00,,,,,,
2026-05-25 08:38:18.386827,1779712698.386827,1560589,-3922426,164515206,93141,-305500,356507,61,0d8efe00,,,,,,
2026-05-25 08:38:18.387407,1779712698.387407,1445888,-3797798,164934110,268304,-173318,806073,61,0d8efe00,,,,,,
2026-05-25 08:38:18.387994,1779712698.387994,3214859,-2887858,164618939,535405,252549,1375909,61,0d8efe00,,,,,,
2026-05-25 08:38:18.388570,1779712698.388570,4221227,-1194208,164572897,531207,795865,1544228,61,0d8efe00,,,,,,
2026-05-25 08:38:18.389150,1779712698.389150,4660017,609521,163954205,269707,950875,1239729,61,0d8efe00,,,,,,
2026-05-25 08:38:18.389728,1779712698.389728,3111877,1246257,164400218,37689,819316,536276,61,0d8efe00,,,,,,
2026-05-25 08:38:18.390307,1779712698.390307,1616684,1259109,164106046,163522,461909,74816,61,0d8efe00,,,,,,
2026-05-25 08:38:18.390865,1779712698.390865,1258575,355247,163865520,99328,392058,-65117,61,0d8dfe00,,,,,,
2026-05-25 08:38:18.391442,1779712698.391442,1182762,-1231597,163874020,-128608,498415,140594,61,0d8efe00,,,,,,
2026-05-25 08:38:18.392019,1779712698.392019,1399235,-3201157,163481892,-336973,194253,213912,61,0d8efe00,,,,,,
2026-05-25 08:38:18.464719,1779712698.464719,2678049,-1670200,164550495,67776,-32777,103412,61,0cbdfe00,,,,,,
2026-05-25 08:38:18.466536,1779712698.466536,2574008,-1477198,164482094,49234,56247,141136,61,0cbdfe00,,,,,,
2026-05-25 08:38:18.467251,1779712698.467251,2335053,-1407665,164370000,28573,52069,138580,61,0cbdfe00,,,,,,
2026-05-25 08:38:18.467943,1779712698.467943,2216301,-1463385,164331910,36832,55914,112323,61,0cbdfe00,,,,,,
2026-05-25 08:38:18.468615,1779712698.468615,2192072,-1739959,164298713,57614,50619,80660,61,0cbdfe00,,,,,,
2026-05-25 08:38:18.469298,1779712698.469298,2270327,-1981974,164345468,61516,72997,96226,61,0cbdfe00,,,,,,
2026-05-25 08:38:18.469973,1779712698.469973,2274218,-2126415,164380937,78616,96199,102858,61,0cbdfe00,,,,,,
2026-05-25 08:38:18.470659,1779712698.470659,2120054,-2085939,164298612,90184,120976,145062,61,0cbdfe00,,,,,,
2026-05-25 08:38:18.472440,1779712698.472440,1906458,-1898188,164195958,104154,113057,158206,61,0cbdfe00,,,,,,
2026-05-25 08:38:18.473132,1779712698.473132,1830217,-1694994,164050590,92316,56592,154318,61,0cbdfe00,,,,,,
2026-05-25 08:38:18.473816,1779712698.473816,1910737,-1530337,164057589,87188,-27364,91353,61,0cbdfe00,,,,,,
2026-05-25 08:38:18.475608,1779712698.475608,2112332,-1510263,164073285,57314,-95718,83412,61,0cbdfe00,,,,,,
2026-05-25 08:38:18.476303,1779712698.476303,2224258,-1573578,164205912,31439,-133516,90837,61,0cbdfe00,,,,,,
2026-05-25 08:38:18.476999,1779712698.476999,2313956,-1696893,164296948,24253,-102232,123404,61,0cbdfe00,,,,,,
2026-05-25 08:38:18.477692,1779712698.477692,2326542,-1772697,164389460,37449,-48462,129056,61,0cbdfe00,,,,,,
2026-05-25 08:38:18.478393,1779712698.478393,2371092,-1874639,164409449,75130,-21490,125252,61,0cbdfe00,,,,,,
2026-05-25 08:38:18.479087,1779712698.479087,2323952,-1909826,164432031,77802,33029,121614,61,0cbdfe00,,,,,,
2026-05-25 08:38:18.480358,1779712698.480358,2305544,-1899011,164399133,87230,50846,104262,61,0cbdfe00,,,,,,
2026-05-25 08:38:18.481052,1779712698.481052,2186300,-1799680,164344472,90920,98272,103229,61,0cbcfe00,,,,,,
2026-05-25 08:38:18.482617,1779712698.482617,2094946,-1697436,164257684,89094,74145,90384,61,0cbcfe00,,,,,,
2026-05-25 08:38:18.483330,1779712698.483330,1995018,-1615713,164157540,96204,17576,85100,61,0cbcfe00,,,,,,
2026-05-25 08:38:18.485808,1779712698.485808,1960544,-1571841,164110424,87211,-63137,71799,61,0cbcfe00,,,,,,
2026-05-25 08:38:18.486705,1779712698.486705,1979974,-1602201,164129671,44024,-118165,66169,61,0cbcfe00,,,,,,
2026-05-25 08:38:18.487788,1779712698.487788,2115053,-1684360,164232918,4009,-165863,62044,61,0cbcfe00,,,,,,
2026-05-25 08:38:18.488488,1779712698.488488,2301980,-1772408,164336911,-29572,-166420,63264,61,0cbcfe00,,,,,,
2026-05-25 08:38:18.489573,1779712698.489573,2444302,-1841488,164478199,13133,-143698,78584,61,0cbcfe00,,,,,,
2026-05-25 08:38:18.490312,1779712698.490312,2486140,-1894163,164497294,32193,-76303,93478,61,0cbcfe00,,,,,,
2026-05-25 08:38:18.491387,1779712698.491387,2444016,-1936176,164452560,75660,-24671,102135,61,0cbcfe00,,,,,,
2026-05-25 08:38:18.492079,1779712698.492079,2264812,-1926438,164362987,76319,26160,92337,61,0cbcfe00,,,,,,
2026-05-25 08:38:18.493163,1779712698.493163,2091112,-1814528,164251922,61035,14195,81661,61,0cbcfe00,,,,,,
2026-05-25 08:38:18.493907,1779712698.493907,2000882,-1701257,164236208,58883,-6216,60406,61,0cbcfe00,,,,,,
2026-05-25 08:38:18.496411,1779712698.496411,1966790,-1581996,164216706,51567,-52005,61252,61,0cbcfe00,,,,,,
2026-05-25 08:38:18.497128,1779712698.497128,2057716,-1506209,164233806,47074,-78586,83258,61,0cbcfe00,,,,,,
2026-05-25 08:38:18.497853,1779712698.497853,2184041,-1516378,164254845,33526,-100993,95951,61,0cbcfe00,,,,,,
2026-05-25 08:38:18.498570,1779712698.498570,2317693,-1581555,164321848,16820,-108272,99363,61,0cbcfe00,,,,,,
2026-05-25 08:38:18.499283,1779712698.499283,2443351,-1735382,164376364,20589,-98538,92227,61,0cbcfe00,,,,,,
2026-05-25 08:38:18.499997,1779712698.499997,2527632,-1872254,164394578,53047,-55882,98769,61,0cbcfe00,,,,,,
2026-05-25 08:38:18.500918,1779712698.500918,2498593,-1997189,164439319,83663,31709,83951,61,0cbcfe00,,,,,,
2026-05-25 08:38:18.501659,1779712698.501659,2383058,-2012007,164361986,130222,96280,83840,61,0cbcfe00,,,,,,
2026-05-25 08:38:18.502418,1779712698.502418,2207514,-1939525,164306285,153478,120722,74838,61,0cbbfe00,,,,,,
2026-05-25 08:38:18.503179,1779712698.503179,2017546,-1779555,164145252,155866,76630,86055,61,0cbbfe00,,,,,,
2026-05-25 08:38:18.510593,1779712698.510593,1871541,-1607862,164065672,118511,24171,102754,61,0cbbfe00,,,,,,
2026-05-25 08:38:18.517503,1779712698.517503,1804253,-1488035,164064476,39478,-56594,85930,61,0cbbfe00,,,,,,
2026-05-25 08:38:18.573727,1779712698.573727,1873514,-1407361,164156528,-11064,-143876,63746,61,0cbcfe00,,,,,,
2026-05-25 08:38:18.574750,1779712698.574750,2035101,-1523952,164282255,-41618,-198107,49784,61,0cbbfe00,,,,,,
2026-05-25 08:38:18.576166,1779712698.576166,2206751,-1656855,164379930,321,-213362,39647,61,0cbbfe00,,,,,,
2026-05-25 08:38:18.577063,1779712698.577063,2345139,-1819382,164451502,27006,-201184,72955,61,0cbbfe00,,,,,,
2026-05-25 08:38:18.578240,1779712698.578240,2469273,-1908271,164482220,32643,-144431,82266,61,0cbbfe00,,,,,,
2026-05-25 08:38:18.578983,1779712698.578983,2495281,-1955295,164518283,29906,-94111,82086,61,0cbbfe00,,,,,,
2026-05-25 08:38:18.580138,1779712698.580138,2444364,-1929603,164453571,28115,-26102,76476,61,0cbbfe00,,,,,,
2026-05-25 08:38:18.580880,1779712698.580880,2306952,-1855575,164385595,38686,3090,76337,61,0cbbfe00,,,,,,
2026-05-25 08:38:18.583672,1779712698.583672,2198486,-1753024,164309725,36919,18974,79939,61,0cbbfe00,,,,,,
2026-05-25 08:38:18.584421,1779712698.584421,2087986,-1639724,164191806,20395,-16627,90577,61,0cbbfe00,,,,,,
2026-05-25 08:38:18.586016,1779712698.586016,2049873,-1592348,164166132,7342,-45118,79199,61,0cbbfe00,,,,,,
2026-05-25 08:38:18.586748,1779712698.586748,2081126,-1566384,164162758,4591,-87722,70112,61,0cbbfe00,,,,,,
2026-05-25 08:38:18.587495,1779712698.587495,2200505,-1633789,164254517,43586,-120830,57994,61,0cbafe00,,,,,,
2026-05-25 08:38:18.588239,1779712698.588239,2333271,-1786538,164344278,56834,-112542,79890,61,0cbafe00,,,,,,
2026-05-25 08:38:18.588971,1779712698.588971,2395679,-1945890,164369356,62903,-73392,88744,61,0cbafe00,,,,,,
2026-05-25 08:38:18.589711,1779712698.589711,2425930,-1985524,164417762,39709,-36445,114513,61,0cbafe00,,,,,,
2026-05-25 08:38:18.590455,1779712698.590455,2338132,-1941390,164370906,46071,21631,111564,61,0cbbfe00,,,,,,
2026-05-25 08:38:18.591194,1779712698.591194,2201648,-1825711,164324428,89876,3051,109486,61,0cbbfe00,,,,,,
2026-05-25 08:38:18.593145,1779712698.593145,2109122,-1730460,164286516,104002,-1148,71586,61,0cbbfe00,,,,,,
2026-05-25 08:38:18.593867,1779712698.593867,2072726,-1694143,164266101,99788,-39520,50837,61,0cbafe00,,,,,,
2026-05-25 08:38:18.594586,1779712698.594586,2086783,-1635516,164305963,70193,-71369,60408,61,0cbafe00,,,,,,
2026-05-25 08:38:18.595303,1779712698.595303,2125776,-1650882,164327412,44396,-82530,76078,61,0cbafe00,,,,,,
2026-05-25 08:38:18.596017,1779712698.596017,2142864,-1639561,164306185,26201,-82061,93473,61,0cbafe00,,,,,,
2026-05-25 08:38:18.596777,1779712698.596777,2178988,-1675432,164298630,34,-75755,101791,61,0cbafe00,,,,,,
2026-05-25 08:38:18.597513,1779712698.597513,2213115,-1717141,164294098,27580,-67655,96206,61,0cbafe00,,,,,,
2026-05-25 08:38:18.598297,1779712698.598297,2217184,-1788405,164325683,33500,-70065,83707,61,0cbafe00,,,,,,
2026-05-25 08:38:18.599015,1779712698.599015,2183013,-1851467,164311104,44625,-55167,64457,61,0cbafe00,,,,,,
2026-05-25 08:38:18.599728,1779712698.599728,2159100,-1854627,164267117,22372,-51950,78448,61,0cb9fe00,,,,,,
2026-05-25 08:38:18.601626,1779712698.601626,2119602,-1808333,164257574,15463,-42141,80957,61,0cb9fe00,,,,,,
2026-05-25 08:38:18.602365,1779712698.602365,2081255,-1745469,164252847,-8036,-56387,76370,61,0cb9fe00,,,,,,
2026-05-25 08:38:18.603551,1779712698.603551,2093884,-1712460,164294931,25202,-73833,74991,61,0cb9fe00,,,,,,
2026-05-25 08:38:18.604474,1779712698.604474,2093884,-1712460,164294931,25202,-73833,74991,61,0cb9fe00,0.0,0.0,0.0,0.0,0.0,0.0
2026-05-25 08:38:18.605198,1779712698.605198,2190096,-1676245,164281182,26415,-91798,80635,61,0cb9fe00,0.0,0.0,0.0,0.0,0.0,0.0
2026-05-25 08:38:18.606117,1779712698.606117,2190096,-1676245,164281182,26415,-91798,80635,61,0cb9fe00,0.0,0.0,0.0,0.0,0.0,0.0
2026-05-25 08:38:18.606847,1779712698.606847,2241908,-1641527,164307462,18901,-105077,94506,61,0cb9fe00,0.0,0.0,0.0,0.0,0.0,0.0
2026-05-25 08:38:18.607788,1779712698.607788,2241908,-1641527,164307462,18901,-105077,94506,61,0cb9fe00,0.0,0.0,0.0,0.0,0.0,0.0
2026-05-25 08:38:18.608515,1779712698.608515,2218610,-1648970,164305544,-13868,-110581,128993,61,0cbafe00,0.0,0.0,0.0,0.0,0.0,0.0
2026-05-25 08:38:18.609522,1779712698.609522,2218610,-1648970,164305544,-13868,-110581,128993,61,0cbafe00,0.0,0.0,0.0,0.0,0.0,0.0
2026-05-25 08:38:18.610363,1779712698.610363,2145397,-1658441,164329819,-26964,-109494,120452,61,0cbafe00,0.0,0.0,0.0,0.0,0.0,0.0
2026-05-25 08:38:18.611291,1779712698.611291,2145397,-1658441,164329819,-26964,-109494,120452,61,0cbafe00,0.0,0.0,0.0,0.0,0.0,0.0
2026-05-25 08:38:18.612455,1779712698.612455,2133194,-1709260,164300293,-39332,-103405,122946,61,0cb9fe00,0.0,0.0,0.0,0.0,0.0,0.0
2026-05-25 08:38:18.613435,1779712698.613435,2133194,-1709260,164300293,-39332,-103405,122946,61,0cb9fe00,0.0,0.0,0.0,0.0,0.0,0.0
2026-05-25 08:38:18.614201,1779712698.614201,2189698,-1767393,164297381,-32229,-97487,111752,61,0cb9fe00,0.0,0.0,0.0,0.0,0.0,0.0
2026-05-25 08:38:18.614979,1779712698.614979,2189698,-1767393,164297381,-32229,-97487,111752,61,0cb9fe00,0.0,0.0,0.0,0.0,0.0,0.0
2026-05-25 08:38:18.615742,1779712698.615742,2207691,-1789099,164284400,-33009,-91828,104492,61,0cb9fe00,0.0,0.0,0.0,0.0,0.0,0.0
2026-05-25 08:38:18.616681,1779712698.616681,2207691,-1789099,164284400,-33009,-91828,104492,61,0cb9fe00,0.0,0.0,0.0,0.0,0.0,0.0
2026-05-25 08:38:18.617393,1779712698.617393,2286687,-1812569,164314459,2090,-86467,98749,61,0cb9fe00,0.0,0.0,0.0,0.0,0.0,0.0
2026-05-25 08:38:18.618353,1779712698.618353,2286687,-1812569,164314459,2090,-86467,98749,61,0cb9fe00,0.0,0.0,0.0,0.0,0.0,0.0
2026-05-25 08:38:18.619065,1779712698.619065,2290655,-1794896,164356556,55600,-66221,71474,61,0cb9fe00,0.0,0.0,0.0,0.0,0.0,0.0
2026-05-25 08:38:18.619988,1779712698.619988,2290655,-1794896,164356556,55600,-66221,71474,61,0cb9fe00,0.0,0.0,0.0,0.0,0.0,0.0
2026-05-25 08:38:18.620998,1779712698.620998,2338809,-1780563,164363657,90242,-51233,71131,61,0cb9fe00,0.0,0.0,0.0,0.0,0.0,0.0
2026-05-25 08:38:18.621931,1779712698.621931,2338809,-1780563,164363657,90242,-51233,71131,61,0cb9fe00,0.0,0.0,0.0,0.0,0.0,0.0
2026-05-25 08:38:18.622647,1779712698.622647,2367456,-1711607,164389861,98406,-22399,70669,61,0cb9fe00,0.0,0.0,0.0,0.0,0.0,0.0
2026-05-25 08:38:18.623616,1779712698.623616,2367456,-1711607,164389861,98406,-22399,70669,61,0cb9fe00,0.0,0.0,0.0,0.0,0.0,0.0
2026-05-25 08:38:18.624463,1779712698.624463,2349161,-1730876,164327924,74854,-16532,87769,61,0cb9fe00,0.0,0.0,0.0,0.0,0.0,0.0
2026-05-25 08:38:18.625411,1779712698.625411,2349161,-1730876,164327924,74854,-16532,87769,61,0cb9fe00,0.0,0.0,0.0,0.0,0.0,0.0
2026-05-25 08:38:18.626190,1779712698.626190,2296559,-1696120,164269034,34981,7597,76635,61,0cb9fe00,0.0,0.0,0.0,0.0,0.0,0.0
2026-05-25 08:38:18.627201,1779712698.627201,2296559,-1696120,164269034,34981,7597,76635,61,0cb9fe00,0.0,0.0,0.0,0.0,0.0,0.0
2026-05-25 08:38:18.627955,1779712698.627955,2223590,-1772929,164281579,13784,12857,84372,61,0cb9fe00,0.0,0.0,0.0,0.0,0.0,0.0
2026-05-25 08:38:18.628937,1779712698.628937,2223590,-1772929,164281579,13784,12857,84372,61,0cb9fe00,0.0,0.0,0.0,0.0,0.0,0.0
2026-05-25 08:38:18.630221,1779712698.630221,2148129,-1757526,164260304,41091,31723,79868,61,0cb9fe00,0.0,0.0,0.0,0.0,0.0,0.0
2026-05-25 08:38:18.631187,1779712698.631187,2148129,-1757526,164260304,41091,31723,79868,61,0cb9fe00,0.0,0.0,0.0,0.0,0.0,0.0
2026-05-25 08:38:18.631922,1779712698.631922,2120915,-1761246,164269754,59741,25095,97159,61,0cb9fe00,0.0,0.0,0.0,0.0,0.0,0.0
2026-05-25 08:38:18.632863,1779712698.632863,2120915,-1761246,164269754,59741,25095,97159,61,0cb9fe00,0.0,0.0,0.0,0.0,0.0,0.0
2026-05-25 08:38:18.633669,1779712698.633669,2103354,-1735723,164203368,73532,6978,85602,61,0cb9fe00,0.0,0.0,0.0,0.0,0.0,0.0
2026-05-25 08:38:18.634613,1779712698.634613,2103354,-1735723,164203368,73532,6978,85602,61,0cb9fe00,0.0,0.0,0.0,0.0,0.0,0.0
2026-05-25 08:38:18.635784,1779712698.635784,2102350,-1710782,164179487,59555,-27417,96151,61,0cb9fe00,0.0,0.0,0.0,0.0,0.0,0.0
2026-05-25 08:38:18.636721,1779712698.636721,2102350,-1710782,164179487,59555,-27417,96151,61,0cb9fe00,0.0,0.0,0.0,0.0,0.0,0.0
2026-05-25 08:38:18.637460,1779712698.637460,2139262,-1686862,164198001,35174,-72247,85229,61,0cb9fe00,0.0,0.0,0.0,0.0,0.0,0.0
2026-05-25 08:38:18.638392,1779712698.638392,2139262,-1686862,164198001,35174,-72247,85229,61,0cb9fe00,0.0,0.0,0.0,0.0,0.0,0.0
2026-05-25 08:38:18.639583,1779712698.639583,2165168,-1696131,164289071,24577,-99710,70922,61,0cb9fe00,0.0,0.0,0.0,0.0,0.0,0.0
2026-05-25 08:38:18.640526,1779712698.640526,2165168,-1696131,164289071,24577,-99710,70922,61,0cb9fe00,0.0,0.0,0.0,0.0,0.0,0.0
2026-05-25 08:38:18.641252,1779712698.641252,2238165,-1674205,164357300,36088,-117761,65068,61,0cb9fe00,0.0,0.0,0.0,0.0,0.0,0.0
2026-05-25 08:38:18.642180,1779712698.642180,2238165,-1674205,164357300,36088,-117761,65068,61,0cb9fe00,0.0,0.0,0.0,0.0,0.0,0.0
2026-05-25 08:38:18.642904,1779712698.642904,2290681,-1707256,164373105,46952,-110008,78096,61,0cb8fe00,0.0,0.0,0.0,0.0,0.0,0.0
2026-05-25 08:38:18.643849,1779712698.643849,2290681,-1707256,164373105,46952,-110008,78096,61,0cb8fe00,0.0,0.0,0.0,0.0,0.0,0.0
2026-05-25 08:38:18.644582,1779712698.644582,2333604,-1702945,164358796,53646,-62360,94416,61,0cb8fe00,0.0,0.0,0.0,0.0,0.0,0.0
2026-05-25 08:38:18.645515,1779712698.645515,2333604,-1702945,164358796,53646,-62360,94416,61,0cb8fe00,0.0,0.0,0.0,0.0,0.0,0.0
2026-05-25 08:38:18.646240,1779712698.646240,2314389,-1748679,164338887,68610,-20320,108058,61,0cb8fe00,0.0,0.0,0.0,0.0,0.0,0.0
2026-05-25 08:38:18.647200,1779712698.647200,2314389,-1748679,164338887,68610,-20320,108058,61,0cb8fe00,0.0,0.0,0.0,0.0,0.0,0.0
2026-05-25 08:38:18.647910,1779712698.647910,2225087,-1774265,164320120,77035,30875,101561,61,0cb8fe00,0.0,0.0,0.0,0.0,0.0,0.0
2026-05-25 08:38:18.648814,1779712698.648814,2225087,-1774265,164320120,77035,30875,101561,61,0cb8fe00,0.0,0.0,0.0,0.0,0.0,0.0
2026-05-25 08:38:18.649526,1779712698.649526,2117770,-1795503,164264153,85183,30288,86172,61,0cb8fe00,0.0,0.0,0.0,0.0,0.0,0.0
2026-05-25 08:38:18.650451,1779712698.650451,2117770,-1795503,164264153,85183,30288,86172,61,0cb8fe00,0.0,0.0,0.0,0.0,0.0,0.0
2026-05-25 08:38:18.651166,1779712698.651166,2049045,-1744333,164193784,88338,-4381,73729,61,0cb9fe00,0.0,0.0,0.0,0.0,0.0,0.0
2026-05-25 08:38:18.652084,1779712698.652084,2049045,-1744333,164193784,88338,-4381,73729,61,0cb9fe00,0.0,0.0,0.0,0.0,0.0,0.0
2026-05-25 08:38:18.652803,1779712698.652803,2031154,-1696574,164165242,59976,-48804,87544,61,0cb8fe00,0.0,0.0,0.0,0.0,0.0,0.0
2026-05-25 08:38:18.653755,1779712698.653755,2031154,-1696574,164165242,59976,-48804,87544,61,0cb8fe00,0.0,0.0,0.0,0.0,0.0,0.0
2026-05-25 08:38:18.654478,1779712698.654478,2038294,-1675560,164192714,68219,-72901,98423,61,0cb8fe00,0.0,0.0,0.0,0.0,0.0,0.0
2026-05-25 08:38:18.655399,1779712698.655399,2038294,-1675560,164192714,68219,-72901,98423,61,0cb8fe00,0.0,0.0,0.0,0.0,0.0,0.0
2026-05-25 08:38:18.656117,1779712698.656117,2087648,-1711356,164253131,30882,-70908,113353,61,0cb9fe00,0.0,0.0,0.0,0.0,0.0,0.0
2026-05-25 08:38:18.657038,1779712698.657038,2087648,-1711356,164253131,30882,-70908,113353,61,0cb9fe00,0.0,0.0,0.0,0.0,0.0,0.0
2026-05-25 08:38:18.657775,1779712698.657775,2158629,-1759990,164254702,14792,-80709,102375,61,0cb8fe00,0.0,0.0,0.0,0.0,0.0,0.0
2026-05-25 08:38:18.658698,1779712698.658698,2158629,-1759990,164254702,14792,-80709,102375,61,0cb8fe00,0.0,0.0,0.0,0.0,0.0,0.0
2026-05-25 08:38:18.659428,1779712698.659428,2264560,-1829714,164305956,-21405,-92238,76806,61,0cb8fe00,0.0,0.0,0.0,0.0,0.0,0.0
2026-05-25 08:38:18.660350,1779712698.660350,2264560,-1829714,164305956,-21405,-92238,76806,61,0cb8fe00,0.0,0.0,0.0,0.0,0.0,0.0
2026-05-25 08:38:18.661066,1779712698.661066,2345013,-1822526,164335063,-24875,-91575,80270,61,0cb8fe00,0.0,0.0,0.0,0.0,0.0,0.0
2026-05-25 08:38:18.661985,1779712698.661985,2345013,-1822526,164335063,-24875,-91575,80270,61,0cb8fe00,0.0,0.0,0.0,0.0,0.0,0.0
2026-05-25 08:38:18.662708,1779712698.662708,2389504,-1870459,164370280,-19632,-72209,89391,61,0cb8fe00,0.0,0.0,0.0,0.0,0.0,0.0
2026-05-25 08:38:18.663653,1779712698.663653,2389504,-1870459,164370280,-19632,-72209,89391,61,0cb8fe00,0.0,0.0,0.0,0.0,0.0,0.0
2026-05-25 08:38:18.664355,1779712698.664355,2335353,-1859136,164392990,-47,-37726,95677,61,0cb8fe00,0.0,0.0,0.0,0.0,0.0,0.0
2026-05-25 08:38:18.665249,1779712698.665249,2335353,-1859136,164392990,-47,-37726,95677,61,0cb8fe00,0.0,0.0,0.0,0.0,0.0,0.0
2026-05-25 08:38:18.665940,1779712698.665940,2213638,-1860215,164360062,48482,-25545,73944,61,0cb8fe00,0.0,0.0,0.0,0.0,0.0,0.0
2026-05-25 08:38:18.666834,1779712698.666834,2213638,-1860215,164360062,48482,-25545,73944,61,0cb8fe00,0.0,0.0,0.0,0.0,0.0,0.0
2026-05-25 08:38:18.667746,1779712698.667746,2161912,-1788793,164324170,74224,-13782,77648,61,0cb8fe00,0.0,0.0,0.0,0.0,0.0,0.0
2026-05-25 08:38:18.668665,1779712698.668665,2161912,-1788793,164324170,74224,-13782,77648,61,0cb8fe00,0.0,0.0,0.0,0.0,0.0,0.0
2026-05-25 08:38:18.669364,1779712698.669364,2108601,-1739948,164258257,71938,-51150,88503,61,0cb8fe00,0.0,0.0,0.0,0.0,0.0,0.0
2026-05-25 08:38:18.670269,1779712698.670269,2108601,-1739948,164258257,71938,-51150,88503,61,0cb8fe00,0.0,0.0,0.0,0.0,0.0,0.0
2026-05-25 08:38:18.670965,1779712698.670965,2163022,-1694041,164255567,46277,-57426,107020,61,0cb8fe00,0.0,0.0,0.0,0.0,0.0,0.0
2026-05-25 08:38:18.671848,1779712698.671848,2163022,-1694041,164255567,46277,-57426,107020,61,0cb8fe00,0.0,0.0,0.0,0.0,0.0,0.0
2026-05-25 08:38:18.672543,1779712698.672543,2213456,-1648375,164263480,46830,-79053,91482,61,0cb8fe00,0.0,0.0,0.0,0.0,0.0,0.0
2026-05-25 08:38:18.673426,1779712698.673426,2213456,-1648375,164263480,46830,-79053,91482,61,0cb8fe00,0.0,0.0,0.0,0.0,0.0,0.0
2026-05-25 08:38:18.674111,1779712698.674111,2310140,-1618831,164283732,42231,-91967,83519,61,0cb8fe00,0.0,0.0,0.0,0.0,0.0,0.0
2026-05-25 08:38:18.675014,1779712698.675014,2310140,-1618831,164283732,42231,-91967,83519,61,0cb8fe00,0.0,0.0,0.0,0.0,0.0,0.0
2026-05-25 08:38:18.675720,1779712698.675720,2355668,-1636486,164301617,79288,-85366,81226,61,0cb7fe00,0.0,0.0,0.0,0.0,0.0,0.0
2026-05-25 08:38:18.676602,1779712698.676602,2355668,-1636486,164301617,79288,-85366,81226,61,0cb7fe00,0.0,0.0,0.0,0.0,0.0,0.0
2026-05-25 08:38:18.677292,1779712698.677292,2342382,-1718769,164291686,87023,-57557,63547,61,0cb7fe00,0.0,0.0,0.0,0.0,0.0,0.0
2026-05-25 08:38:18.678173,1779712698.678173,2342382,-1718769,164291686,87023,-57557,63547,61,0cb7fe00,0.0,0.0,0.0,0.0,0.0,0.0
2026-05-25 08:38:18.678862,1779712698.678862,2295024,-1780005,164332865,81034,-11796,55515,61,0cb7fe00,0.0,0.0,0.0,0.0,0.0,0.0
2026-05-25 08:38:18.679745,1779712698.679745,2295024,-1780005,164332865,81034,-11796,55515,61,0cb7fe00,0.0,0.0,0.0,0.0,0.0,0.0
2026-05-25 08:38:18.680433,1779712698.680433,2238604,-1847746,164320905,40092,509,57040,61,0cb7fe00,0.0,0.0,0.0,0.0,0.0,0.0
2026-05-25 08:38:18.681319,1779712698.681319,2238604,-1847746,164320905,40092,509,57040,61,0cb7fe00,0.0,0.0,0.0,0.0,0.0,0.0
2026-05-25 08:38:18.682169,1779712698.682169,2158691,-1846259,164321547,28659,15499,65626,61,0cb7fe00,0.0,0.0,0.0,0.0,0.0,0.0
2026-05-25 08:38:18.683357,1779712698.683357,2158691,-1846259,164321547,28659,15499,65626,61,0cb7fe00,0.0,0.0,0.0,0.0,0.0,0.0
2026-05-25 08:38:18.684290,1779712698.684290,2087636,-1835359,164283612,33319,11761,78558,61,0cb7fe00,0.0,0.0,0.0,0.0,0.0,0.0
2026-05-25 08:38:18.685484,1779712698.685484,2087636,-1835359,164283612,33319,11761,78558,61,0cb7fe00,0.0,0.0,0.0,0.0,0.0,0.0
2026-05-25 08:38:18.686426,1779712698.686426,2043981,-1776395,164246147,52654,6108,66998,61,0cb7fe00,0.0,0.0,0.0,0.0,0.0,0.0
2026-05-25 08:38:18.687608,1779712698.687608,2043981,-1776395,164246147,52654,6108,66998,61,0cb7fe00,0.0,0.0,0.0,0.0,0.0,0.0
2026-05-25 08:38:18.688535,1779712698.688535,2071247,-1723537,164267034,55423,-39388,64795,61,0cb7fe00,0.0,0.0,0.0,0.0,0.0,0.0
2026-05-25 08:38:18.689716,1779712698.689716,2071247,-1723537,164267034,55423,-39388,64795,61,0cb7fe00,0.0,0.0,0.0,0.0,0.0,0.0
2026-05-25 08:38:18.690635,1779712698.690635,2092832,-1715010,164237969,50020,-89735,94891,61,0cb7fe00,0.0,0.0,0.0,0.0,0.0,0.0
2026-05-25 08:38:18.691819,1779712698.691819,2092832,-1715010,164237969,50020,-89735,94891,61,0cb7fe00,0.0,0.0,0.0,0.0,0.0,0.0
2026-05-25 08:38:18.692747,1779712698.692747,2172490,-1736768,164291210,40334,-123746,107915,61,0cb7fe00,0.0,0.0,0.0,0.0,0.0,0.0
2026-05-25 08:38:18.693930,1779712698.693930,2172490,-1736768,164291210,40334,-123746,107915,61,0cb7fe00,0.0,0.0,0.0,0.0,0.0,0.0
2026-05-25 08:38:18.694855,1779712698.694855,2250119,-1728380,164350821,6189,-130408,123438,61,0cb7fe00,0.0,0.0,0.0,0.0,0.0,0.0
2026-05-25 08:38:18.696040,1779712698.696040,2250119,-1728380,164350821,6189,-130408,123438,61,0cb7fe00,0.0,0.0,0.0,0.0,0.0,0.0
2026-05-25 08:38:18.696977,1779712698.696977,2355332,-1733841,164416068,-7676,-129833,100062,61,0cb7fe00,0.0,0.0,0.0,0.0,0.0,0.0
2026-05-25 08:38:18.698160,1779712698.698160,2355332,-1733841,164416068,-7676,-129833,100062,61,0cb7fe00,0.0,0.0,0.0,0.0,0.0,0.0
2026-05-25 08:38:18.699081,1779712698.699081,2385932,-1721285,164438623,-9100,-106043,93336,61,0cb7fe00,0.0,0.0,0.0,0.0,0.0,0.0
2026-05-25 08:38:18.700234,1779712698.700234,2385932,-1721285,164438623,-9100,-106043,93336,61,0cb7fe00,0.0,0.0,0.0,0.0,0.0,0.0
2026-05-25 08:38:18.701123,1779712698.701123,2366798,-1752225,164410683,9208,-70611,69992,61,0cb7fe00,0.0,0.0,0.0,0.0,0.0,0.0
2026-05-25 08:38:18.702272,1779712698.702272,2366798,-1752225,164410683,9208,-70611,69992,61,0cb7fe00,0.0,0.0,0.0,0.0,0.0,0.0
2026-05-25 08:38:18.703163,1779712698.703163,2282278,-1764700,164313301,3142,-28883,62836,61,0cb7fe00,0.0,0.0,0.0,0.0,0.0,0.0
2026-05-25 08:38:18.704311,1779712698.704311,2282278,-1764700,164313301,3142,-28883,62836,61,0cb7fe00,0.0,0.0,0.0,0.0,0.0,0.0
2026-05-25 08:38:18.705211,1779712698.705211,2214984,-1742828,164229762,13564,-16992,59257,61,0cb7fe00,0.0,0.0,0.0,0.0,0.0,0.0
2026-05-25 08:38:18.706532,1779712698.706532,2214984,-1742828,164229762,13564,-16992,59257,61,0cb7fe00,0.0,0.0,0.0,0.0,0.0,0.0
2026-05-25 08:38:18.708202,1779712698.708202,2130878,-1698774,164138540,20366,6511,73164,61,0cb7fe00,0.0,0.0,0.0,0.0,0.0,0.0
2026-05-25 08:38:18.710314,1779712698.710314,2130878,-1698774,164138540,20366,6511,73164,61,0cb7fe00,0.0,0.0,0.0,0.0,0.0,0.0
2026-05-25 08:38:18.711954,1779712698.711954,2057388,-1691158,164186281,39869,-25280,79507,61,0cb7fe00,0.0,0.0,0.0,0.0,0.0,0.0
2026-05-25 08:38:18.713842,1779712698.713842,2057388,-1691158,164186281,39869,-25280,79507,61,0cb7fe00,0.0,0.0,0.0,0.0,0.0,0.0
2026-05-25 08:38:18.714580,1779712698.714580,2068754,-1720831,164178354,28532,-23137,72947,61,0cb7fe00,0.0,0.0,0.0,0.0,0.0,0.0
2026-05-25 08:38:18.715495,1779712698.715495,2068754,-1720831,164178354,28532,-23137,72947,61,0cb7fe00,0.0,0.0,0.0,0.0,0.0,0.0
2026-05-25 08:38:18.716193,1779712698.716193,2100469,-1741873,164242916,29033,-73005,61505,61,0cb7fe00,0.0,0.0,0.0,0.0,0.0,0.0
2026-05-25 08:38:18.717066,1779712698.717066,2100469,-1741873,164242916,29033,-73005,61505,61,0cb7fe00,0.0,0.0,0.0,0.0,0.0,0.0
2026-05-25 08:38:18.717756,1779712698.717756,2206190,-1787275,164247099,12396,-91995,50946,61,0cb6fe00,0.0,0.0,0.0,0.0,0.0,0.0
2026-05-25 08:38:18.718643,1779712698.718643,2206190,-1787275,164247099,12396,-91995,50946,61,0cb6fe00,0.0,0.0,0.0,0.0,0.0,0.0
2026-05-25 08:38:18.719396,1779712698.719396,2264131,-1756871,164290472,6323,-120184,54485,61,0cb6fe00,0.0,0.0,0.0,0.0,0.0,0.0
2026-05-25 08:38:18.720304,1779712698.720304,2264131,-1756871,164290472,6323,-120184,54485,61,0cb6fe00,0.0,0.0,0.0,0.0,0.0,0.0
2026-05-25 08:38:18.721007,1779712698.721007,2326742,-1773669,164261912,-11358,-90604,71298,61,0cb6fe00,0.0,0.0,0.0,0.0,0.0,0.0
2026-05-25 08:38:18.721911,1779712698.721911,2326742,-1773669,164261912,-11358,-90604,71298,61,0cb6fe00,0.0,0.0,0.0,0.0,0.0,0.0
2026-05-25 08:38:18.722618,1779712698.722618,2342777,-1805623,164297551,-19643,-58433,87126,61,0cb6fe00,0.0,0.0,0.0,0.0,0.0,0.0
2026-05-25 08:38:18.723554,1779712698.723554,2342777,-1805623,164297551,-19643,-58433,87126,61,0cb6fe00,0.0,0.0,0.0,0.0,0.0,0.0
2026-05-25 08:38:18.724259,1779712698.724259,2295257,-1843145,164337768,-23820,-25561,91418,61,0cb6fe00,0.0,0.0,0.0,0.0,0.0,0.0
2026-05-25 08:38:18.725156,1779712698.725156,2295257,-1843145,164337768,-23820,-25561,91418,61,0cb6fe00,0.0,0.0,0.0,0.0,0.0,0.0
2026-05-25 08:38:18.728311,1779712698.728311,2255841,-1846851,164310991,-21891,8280,92672,61,0cb6fe00,0.0,0.0,0.0,0.0,0.0,0.0
2026-05-25 08:38:18.732699,1779712698.732699,2255841,-1846851,164310991,-21891,8280,92672,61,0cb6fe00,0.0,0.0,0.0,0.0,0.0,0.0
2026-05-25 08:38:18.733418,1779712698.733418,2142976,-1789501,164291746,-5158,4174,83994,61,0cb6fe00,0.0,0.0,0.0,0.0,0.0,0.0
2026-05-25 08:38:18.734327,1779712698.734327,2142976,-1789501,164291746,-5158,4174,83994,61,0cb6fe00,0.0,0.0,0.0,0.0,0.0,0.0
2026-05-25 08:38:18.742357,1779712698.742357,2119371,-1784055,164271463,683,8832,88203,61,0cb6fe00,0.0,0.0,0.0,0.0,0.0,0.0
2026-05-25 08:38:18.743263,1779712698.743263,2119371,-1784055,164271463,683,8832,88203,61,0cb6fe00,0.0,0.0,0.0,0.0,0.0,0.0
2026-05-25 08:38:18.788818,1779712698.788818,2090720,-1759624,164243429,12623,-16881,77555,61,0cb6fe00,0.0,0.0,0.0,0.0,0.0,0.0
2026-05-25 08:38:18.789757,1779712698.789757,2090720,-1759624,164243429,12623,-16881,77555,61,0cb6fe00,0.0,0.0,0.0,0.0,0.0,0.0
2026-05-25 08:38:18.797859,1779712698.797859,2170732,-1755994,164284625,23800,-27548,84466,61,0cb6fe00,0.0,0.0,0.0,0.0,0.0,0.0
2026-05-25 08:38:18.798784,1779712698.798784,2170732,-1755994,164284625,23800,-27548,84466,61,0cb6fe00,0.0,0.0,0.0,0.0,0.0,0.0
2026-05-25 08:38:18.800115,1779712698.800115,2229223,-1752683,164262426,38296,-39497,94134,61,0cb6fe00,0.0,0.0,0.0,0.0,0.0,0.0
2026-05-25 08:38:18.801037,1779712698.801037,2229223,-1752683,164262426,38296,-39497,94134,61,0cb6fe00,0.0,0.0,0.0,0.0,0.0,0.0
2026-05-25 08:38:18.801764,1779712698.801764,2278323,-1745901,164265979,39207,-42386,109982,61,0cb6fe00,0.0,0.0,0.0,0.0,0.0,0.0
2026-05-25 08:38:18.802722,1779712698.802722,2278323,-1745901,164265979,39207,-42386,109982,61,0cb6fe00,0.0,0.0,0.0,0.0,0.0,0.0
2026-05-25 08:38:18.803857,1779712698.803857,2302756,-1756722,164227539,55514,-37102,112826,61,0cb6fe00,0.0,0.0,0.0,0.0,0.0,0.0
2026-05-25 08:38:18.804780,1779712698.804780,2302756,-1756722,164227539,55514,-37102,112826,61,0cb6fe00,0.0,0.0,0.0,0.0,0.0,0.0
2026-05-25 08:38:18.805503,1779712698.805503,2263121,-1799216,164313063,42613,-20458,96609,61,0cb5fe00,0.0,0.0,0.0,0.0,0.0,0.0
2026-05-25 08:38:18.806459,1779712698.806459,2263121,-1799216,164313063,42613,-20458,96609,61,0cb5fe00,0.0,0.0,0.0,0.0,0.0,0.0
2026-05-25 08:38:18.807973,1779712698.807973,2242329,-1819512,164387204,58946,13137,74021,61,0cb6fe00,0.0,0.0,0.0,0.0,0.0,0.0
2026-05-25 08:38:18.808950,1779712698.808950,2242329,-1819512,164387204,58946,13137,74021,61,0cb6fe00,0.0,0.0,0.0,0.0,0.0,0.0
2026-05-25 08:38:18.809688,1779712698.809688,2260823,-1849156,164414269,87473,31759,68791,61,0cb6fe00,0.0,0.0,0.0,0.0,0.0,0.0
2026-05-25 08:38:18.810626,1779712698.810626,2260823,-1849156,164414269,87473,31759,68791,61,0cb6fe00,0.0,0.0,0.0,0.0,0.0,0.0
2026-05-25 08:38:18.811769,1779712698.811769,2237929,-1830033,164381913,110597,50612,76711,61,0cb6fe00,0.0,0.0,0.0,0.0,0.0,0.0
2026-05-25 08:38:18.812698,1779712698.812698,2237929,-1830033,164381913,110597,50612,76711,61,0cb6fe00,0.0,0.0,0.0,0.0,0.0,0.0
2026-05-25 08:38:18.813447,1779712698.813447,2196653,-1825481,164370531,146472,73991,94076,61,0cb6fe00,0.0,0.0,0.0,0.0,0.0,0.0
2026-05-25 08:38:18.814389,1779712698.814389,2196653,-1825481,164370531,146472,73991,94076,61,0cb6fe00,0.0,0.0,0.0,0.0,0.0,0.0
2026-05-25 08:38:18.815704,1779712698.815704,2152295,-1877205,164373412,195842,100814,101815,61,0cb5fe00,0.0,0.0,0.0,0.0,0.0,0.0
2026-05-25 08:38:18.816479,1779712698.816479,2152295,-1877205,164373412,195842,100814,101815,61,0cb5fe00,0.0,0.0,0.0,0.0,0.0,0.0
2026-05-25 08:38:18.817093,1779712698.817093,2176495,-1888415,164371004,271837,138287,106202,61,0cb5fe00,0.0,0.0,0.0,0.0,0.0,0.0
2026-05-25 08:38:18.817865,1779712698.817865,2176495,-1888415,164371004,271837,138287,106202,61,0cb5fe00,0.0,0.0,0.0,0.0,0.0,0.0
2026-05-25 08:38:18.818971,1779712698.818971,2245344,-1870073,164395150,322775,146778,91581,61,0cb5fe00,0.0,0.0,0.0,0.0,0.0,0.0
2026-05-25 08:38:18.819743,1779712698.819743,2245344,-1870073,164395150,322775,146778,91581,61,0cb5fe00,0.0,0.0,0.0,0.0,0.0,0.0
2026-05-25 08:38:18.820360,1779712698.820360,2322107,-1805902,164525683,430783,181003,87469,61,0cb5fe00,0.0,0.0,0.0,0.0,0.0,0.0
2026-05-25 08:38:18.821162,1779712698.821162,2322107,-1805902,164525683,430783,181003,87469,61,0cb5fe00,0.0,0.0,0.0,0.0,0.0,0.0
2026-05-25 08:38:18.822231,1779712698.822231,2374763,-1850242,164603451,531469,240538,76920,61,0cb5fe00,0.0,0.0,0.0,0.0,0.0,0.0
2026-05-25 08:38:18.822989,1779712698.822989,2374763,-1850242,164603451,531469,240538,76920,61,0cb5fe00,0.0,0.0,0.0,0.0,0.0,0.0
2026-05-25 08:38:18.823606,1779712698.823606,2414870,-1887142,164717076,702014,329273,74766,61,0cb5fe00,0.0,0.0,0.0,0.0,0.0,0.0
2026-05-25 08:38:18.824357,1779712698.824357,2414870,-1887142,164717076,702014,329273,74766,61,0cb5fe00,0.0,0.0,0.0,0.0,0.0,0.0
2026-05-25 08:38:18.824949,1779712698.824949,2434291,-1928387,164604520,801815,407323,92765,61,0cb6fe00,0.0,0.0,0.0,0.0,0.0,0.0
2026-05-25 08:38:18.825701,1779712698.825701,2434291,-1928387,164604520,801815,407323,92765,61,0cb6fe00,0.0,0.0,0.0,0.0,0.0,0.0
2026-05-25 08:38:18.826304,1779712698.826304,2358163,-1852145,164441762,872200,455939,107440,61,0cb6fe00,0.0,0.0,0.0,0.0,0.0,0.0
2026-05-25 08:38:18.827026,1779712698.827026,2358163,-1852145,164441762,872200,455939,107440,61,0cb6fe00,0.0,0.0,0.0,0.0,0.0,0.0
2026-05-25 08:38:18.827836,1779712698.827836,2266356,-1721031,164240636,851142,468776,121599,61,0cb6fe00,0.0,0.0,0.0,0.0,0.0,0.0
2026-05-25 08:38:18.828585,1779712698.828585,2266356,-1721031,164240636,851142,468776,121599,61,0cb6fe00,0.0,0.0,0.0,0.0,0.0,0.0
2026-05-25 08:38:18.829175,1779712698.829175,2092666,-1601792,164127570,799569,461012,116058,61,0cb5fe00,0.0,0.0,0.0,0.0,0.0,0.0
2026-05-25 08:38:18.829899,1779712698.829899,2092666,-1601792,164127570,799569,461012,116058,61,0cb5fe00,0.0,0.0,0.0,0.0,0.0,0.0
2026-05-25 08:38:18.830478,1779712698.830478,1934548,-1445144,164134697,751030,430567,91653,61,0cb5fe00,0.0,0.0,0.0,0.0,0.0,0.0
2026-05-25 08:38:18.831206,1779712698.831206,1934548,-1445144,164134697,751030,430567,91653,61,0cb5fe00,0.0,0.0,0.0,0.0,0.0,0.0
2026-05-25 08:38:18.833963,1779712698.833963,1923399,-1368880,164138180,740725,385595,42693,61,0cb5fe00,0.0,0.0,0.0,0.0,0.0,0.0
2026-05-25 08:38:18.834696,1779712698.834696,1923399,-1368880,164138180,740725,385595,42693,61,0cb5fe00,0.0,0.0,0.0,0.0,0.0,0.0
2026-05-25 08:38:18.843778,1779712698.843778,2087604,-1282764,164040548,663596,330861,42059,61,0cb5fe00,0.0,0.0,0.0,0.0,0.0,0.0
2026-05-25 08:38:18.845288,1779712698.845288,2087604,-1282764,164040548,663596,330861,42059,61,0cb5fe00,0.0,0.0,0.0,0.0,0.0,0.0
2026-05-25 08:38:18.853683,1779712698.853683,2302385,-1381362,164220230,551056,279768,51274,61,0cb5fe00,0.0,0.0,0.0,0.0,0.0,0.0
2026-05-25 08:38:18.854391,1779712698.854391,2302385,-1381362,164220230,551056,279768,51274,61,0cb5fe00,0.0,0.0,0.0,0.0,0.0,0.0
2026-05-25 08:38:18.863662,1779712698.863662,2444958,-1678963,164414979,442010,323632,97672,61,0cb5fe00,0.0,0.0,0.0,0.0,0.0,0.0
2026-05-25 08:38:18.864373,1779712698.864373,2444958,-1678963,164414979,442010,323632,97672,61,0cb5fe00,0.0,0.0,0.0,0.0,0.0,0.0
2026-05-25 08:38:18.873791,1779712698.873791,2374207,-1861932,164507931,429060,380840,142561,61,0cb5fe00,0.0,0.0,0.0,0.0,0.0,0.0
2026-05-25 08:38:18.875133,1779712698.875133,2374207,-1861932,164507931,429060,380840,142561,61,0cb5fe00,0.0,0.0,0.0,0.0,0.0,0.0
2026-05-25 08:38:18.883777,1779712698.883777,2253042,-1927611,164267242,438480,428452,161884,61,0cb5fe00,0.0,0.0,0.0,0.0,0.0,0.0
2026-05-25 08:38:18.884514,1779712698.884514,2253042,-1927611,164267242,438480,428452,161884,61,0cb5fe00,0.0,0.0,0.0,0.0,0.0,0.0
2026-05-25 08:38:18.893912,1779712698.893912,1996402,-1843565,163951917,395629,381873,135414,61,0cb5fe00,0.0,0.0,0.0,0.0,0.0,0.0
2026-05-25 08:38:18.894564,1779712698.894564,1996402,-1843565,163951917,395629,381873,135414,61,0cb5fe00,0.0,0.0,0.0,0.0,0.0,0.0
2026-05-25 08:38:18.903896,1779712698.903896,1815978,-1829195,163961639,304610,273441,87876,61,0cb5fe00,0.0,0.0,0.0,0.0,0.0,0.0
2026-05-25 08:38:18.904526,1779712698.904526,1815978,-1829195,163961639,304610,273441,87876,61,0cb5fe00,0.0,0.0,0.0,0.0,0.0,0.0
2026-05-25 08:38:18.913842,1779712698.913842,1756338,-1783938,164001578,267859,194549,58815,61,0cb5fe00,0.0,0.0,0.0,0.0,0.0,0.0
2026-05-25 08:38:18.914568,1779712698.914568,1756338,-1783938,164001578,267859,194549,58815,61,0cb5fe00,0.0,0.0,0.0,0.0,0.0,0.0
2026-05-25 08:38:18.924103,1779712698.924103,1874612,-1715004,164129653,236804,96965,64434,61,0cb5fe00,0.0,0.0,0.0,0.0,0.0,0.0
2026-05-25 08:38:18.925409,1779712698.925409,1874612,-1715004,164129653,236804,96965,64434,61,0cb5fe00,0.0,0.0,0.0,0.0,0.0,0.0
2026-05-25 08:38:18.934292,1779712698.934292,2071962,-1599692,164111543,196589,72264,97967,61,0cb5fe00,0.0,0.0,0.0,0.0,0.0,0.0
2026-05-25 08:38:18.936644,1779712698.936644,2071962,-1599692,164111543,196589,72264,97967,61,0cb5fe00,0.0,0.0,0.0,0.0,0.0,0.0
2026-05-25 08:38:18.944388,1779712698.944388,2192327,-1543281,164293757,101661,41021,121758,61,0cb5fe00,0.0,0.0,0.0,0.0,0.0,0.0
2026-05-25 08:38:18.946024,1779712698.946024,2192327,-1543281,164293757,101661,41021,121758,61,0cb5fe00,0.0,0.0,0.0,0.0,0.0,0.0
2026-05-25 08:38:18.953897,1779712698.953897,2233331,-1446194,164349694,104059,49709,129979,61,0cb5fe00,0.0,0.0,0.0,0.0,0.0,0.0
2026-05-25 08:38:18.954781,1779712698.954781,2233331,-1446194,164349694,104059,49709,129979,61,0cb5fe00,0.0,0.0,0.0,0.0,0.0,0.0
2026-05-25 08:38:18.963795,1779712698.963795,2241581,-1446087,164301275,97728,19399,118194,61,0cb5fe00,0.0,0.0,0.0,0.0,0.0,0.0
2026-05-25 08:38:18.964456,1779712698.964456,2241581,-1446087,164301275,97728,19399,118194,61,0cb5fe00,0.0,0.0,0.0,0.0,0.0,0.0
2026-05-25 08:38:18.973736,1779712698.973736,2219066,-1480104,164165501,82029,36161,99659,61,0cb5fe00,0.0,0.0,0.0,0.0,0.0,0.0
2026-05-25 08:38:18.974422,1779712698.974422,2219066,-1480104,164165501,82029,36161,99659,61,0cb5fe00,0.0,0.0,0.0,0.0,0.0,0.0
2026-05-25 08:38:18.983887,1779712698.983887,2183345,-1743905,164178998,60745,2045,109889,61,0cb4fe00,0.0,0.0,0.0,0.0,0.0,0.0
2026-05-25 08:38:18.984497,1779712698.984497,2183345,-1743905,164178998,60745,2045,109889,61,0cb4fe00,0.0,0.0,0.0,0.0,0.0,0.0
2026-05-25 08:38:18.993908,1779712698.993908,2084827,-1910440,164302354,38741,16652,119317,61,0cb4fe00,0.0,0.0,0.0,0.0,0.0,0.0
2026-05-25 08:38:18.994577,1779712698.994577,2084827,-1910440,164302354,38741,16652,119317,61,0cb4fe00,0.0,0.0,0.0,0.0,0.0,0.0
2026-05-25 08:38:19.003720,1779712699.003720,2027135,-2008179,164315285,51800,-14739,116994,61,0cb4fe00,0.0,0.0,0.0,0.0,0.0,0.0
2026-05-25 08:38:19.004457,1779712699.004457,2027135,-2008179,164315285,51800,-14739,116994,61,0cb4fe00,0.0,0.0,0.0,0.0,0.0,0.0
2026-05-25 08:38:19.013871,1779712699.013871,1916688,-1833277,164181366,35409,-42056,131765,61,0cb4fe00,0.0,0.0,0.0,0.0,0.0,0.0
2026-05-25 08:38:19.014531,1779712699.014531,1916688,-1833277,164181366,35409,-42056,131765,61,0cb4fe00,0.0,0.0,0.0,0.0,0.0,0.0
2026-05-25 08:38:19.023628,1779712699.023628,1906419,-1668442,164158568,18774,-74032,126698,61,0cb4fe00,0.0,0.0,0.0,0.0,0.0,0.0
2026-05-25 08:38:19.024277,1779712699.024277,1906419,-1668442,164158568,18774,-74032,126698,61,0cb4fe00,0.0,0.0,0.0,0.0,0.0,0.0
2026-05-25 08:38:19.034042,1779712699.034042,1963117,-1507248,164199690,42275,-126614,105747,61,0cb4fe00,0.0,0.0,0.0,0.0,0.0,0.0
2026-05-25 08:38:19.035205,1779712699.035205,1963117,-1507248,164199690,42275,-126614,105747,61,0cb4fe00,0.0,0.0,0.0,0.0,0.0,0.0
2026-05-25 08:38:19.043748,1779712699.043748,2168860,-1494160,164337811,68906,-146526,68562,61,0cb4fe00,0.0,0.0,0.0,0.0,0.0,0.0
2026-05-25 08:38:19.044465,1779712699.044465,2168860,-1494160,164337811,68906,-146526,68562,61,0cb4fe00,0.0,0.0,0.0,0.0,0.0,0.0
2026-05-25 08:38:19.053909,1779712699.053909,2326568,-1464531,164298303,49921,-136305,67915,61,0cb4fe00,0.0,0.0,0.0,0.0,0.0,0.0
2026-05-25 08:38:19.054767,1779712699.054767,2326568,-1464531,164298303,49921,-136305,67915,61,0cb4fe00,0.0,0.0,0.0,0.0,0.0,0.0
2026-05-25 08:38:19.064037,1779712699.064037,2319422,-1506312,164325970,-65,-101926,102473,61,0cb4fe00,0.0,0.0,0.0,0.0,0.0,0.0
2026-05-25 08:38:19.065007,1779712699.065007,2319422,-1506312,164325970,-65,-101926,102473,61,0cb4fe00,0.0,0.0,0.0,0.0,0.0,0.0
2026-05-25 08:38:19.074227,1779712699.074227,2183644,-1574751,164287936,-38961,-65143,119600,61,0cb4fe00,0.0,0.0,0.0,0.0,0.0,0.0
2026-05-25 08:38:19.075409,1779712699.075409,2183644,-1574751,164287936,-38961,-65143,119600,61,0cb4fe00,0.0,0.0,0.0,0.0,0.0,0.0
2026-05-25 08:38:19.084578,1779712699.084578,2018364,-1653871,164208700,-49882,-104666,101866,61,0cb4fe00,0.0,0.0,0.0,0.0,0.0,0.0
2026-05-25 08:38:19.085854,1779712699.085854,2018364,-1653871,164208700,-49882,-104666,101866,61,0cb4fe00,0.0,0.0,0.0,0.0,0.0,0.0
2026-05-25 08:38:19.095668,1779712699.095668,1981076,-1726845,164157329,-73668,-146838,67045,61,0cb4fe00,0.0,0.0,0.0,0.0,0.0,0.0
2026-05-25 08:38:19.097441,1779712699.097441,1981076,-1726845,164157329,-73668,-146838,67045,61,0cb4fe00,0.0,0.0,0.0,0.0,0.0,0.0
2026-05-25 08:38:19.104357,1779712699.104357,2020235,-1832099,164139288,-107804,-192979,43905,61,0cb4fe00,0.0,0.0,0.0,0.0,0.0,0.0
2026-05-25 08:38:19.105447,1779712699.105447,2020235,-1832099,164139288,-107804,-192979,43905,61,0cb4fe00,0.0,0.0,0.0,0.0,0.0,0.0
2026-05-25 08:38:19.114860,1779712699.114860,2079507,-1890399,164296369,-99365,-183187,28147,61,0cb4fe00,0.0,0.0,0.0,0.0,0.0,0.0
2026-05-25 08:38:19.116393,1779712699.116393,2079507,-1890399,164296369,-99365,-183187,28147,61,0cb4fe00,0.0,0.0,0.0,0.0,0.0,0.0
2026-05-25 08:38:19.124203,1779712699.124203,2155360,-1911293,164373821,-66508,-167890,38717,61,0cb4fe00,0.0,0.0,0.0,0.0,0.0,0.0
2026-05-25 08:38:19.125146,1779712699.125146,2155360,-1911293,164373821,-66508,-167890,38717,61,0cb4fe00,0.0,0.0,0.0,0.0,0.0,0.0
2026-05-25 08:38:19.134293,1779712699.134293,2220381,-1767195,164387909,-38876,-136123,56361,61,0cb4fe00,0.0,0.0,0.0,0.0,0.0,0.0
2026-05-25 08:38:19.135135,1779712699.135135,2220381,-1767195,164387909,-38876,-136123,56361,61,0cb4fe00,0.0,0.0,0.0,0.0,0.0,0.0
2026-05-25 08:38:19.144164,1779712699.144164,2365420,-1708445,164391859,13531,-107513,89410,61,0cb4fe00,0.0,0.0,0.0,0.0,0.0,0.0
2026-05-25 08:38:19.145073,1779712699.145073,2365420,-1708445,164391859,13531,-107513,89410,61,0cb4fe00,0.0,0.0,0.0,0.0,0.0,0.0
2026-05-25 08:38:19.154167,1779712699.154167,2372152,-1633144,164417680,55600,-91995,88860,61,0cb4fe00,0.0,0.0,0.0,0.0,0.0,0.0
2026-05-25 08:38:19.155450,1779712699.155450,2372152,-1633144,164417680,55600,-91995,88860,61,0cb4fe00,0.0,0.0,0.0,0.0,0.0,0.0
2026-05-25 08:38:19.164443,1779712699.164443,2384121,-1689557,164451521,107757,-22139,94410,61,0cb3fe00,0.0,0.0,0.0,0.0,0.0,0.0
2026-05-25 08:38:19.165832,1779712699.165832,2384121,-1689557,164451521,107757,-22139,94410,61,0cb3fe00,0.0,0.0,0.0,0.0,0.0,0.0
2026-05-25 08:38:19.174126,1779712699.174126,2344391,-1699166,164387190,94622,21134,83231,61,0cb3fe00,0.0,0.0,0.0,0.0,0.0,0.0
2026-05-25 08:38:19.175245,1779712699.175245,2344391,-1699166,164387190,94622,21134,83231,61,0cb3fe00,0.0,0.0,0.0,0.0,0.0,0.0
2026-05-25 08:38:19.183920,1779712699.183920,2230640,-1723793,164325954,76926,43940,95899,61,0cb3fe00,0.0,0.0,0.0,0.0,0.0,0.0
2026-05-25 08:38:19.185013,1779712699.185013,2230640,-1723793,164325954,76926,43940,95899,61,0cb3fe00,0.0,0.0,0.0,0.0,0.0,0.0
2026-05-25 08:38:19.194397,1779712699.194397,2080834,-1719200,164212292,33911,26962,94019,61,0cb3fe00,0.0,0.0,0.0,0.0,0.0,0.0
2026-05-25 08:38:19.196037,1779712699.196037,2080834,-1719200,164212292,33911,26962,94019,61,0cb3fe00,0.0,0.0,0.0,0.0,0.0,0.0
2026-05-25 08:38:19.205062,1779712699.205062,1845760,-1693994,164181731,15903,-29503,100189,61,0cb3fe00,0.0,0.0,0.0,0.0,0.0,0.0
2026-05-25 08:38:19.207176,1779712699.207176,1845760,-1693994,164181731,15903,-29503,100189,61,0cb3fe00,0.0,0.0,0.0,0.0,0.0,0.0
2026-05-25 08:38:19.215961,1779712699.215961,1790429,-1681328,164113235,25000,-95728,85938,61,0cb3fe00,0.0,0.0,0.0,0.0,0.0,0.0
2026-05-25 08:38:19.218133,1779712699.218133,1790429,-1681328,164113235,25000,-95728,85938,61,0cb3fe00,0.0,0.0,0.0,0.0,0.0,0.0
2026-05-25 08:38:19.224861,1779712699.224861,1822115,-1660636,164103297,23174,-162300,71211,61,0cb3fe00,0.0,0.0,0.0,0.0,0.0,0.0
2026-05-25 08:38:19.226803,1779712699.226803,1822115,-1660636,164103297,23174,-162300,71211,61,0cb3fe00,0.0,0.0,0.0,0.0,0.0,0.0
2026-05-25 08:38:19.234842,1779712699.234842,1973967,-1660352,164113649,-26078,-213533,51649,61,0cb3fe00,0.0,0.0,0.0,0.0,0.0,0.0
2026-05-25 08:38:19.236837,1779712699.236837,1973967,-1660352,164113649,-26078,-213533,51649,61,0cb3fe00,0.0,0.0,0.0,0.0,0.0,0.0
2026-05-25 08:38:19.245404,1779712699.245404,2164992,-1664701,164290359,-32077,-218182,45599,61,0cb3fe00,0.0,0.0,0.0,0.0,0.0,0.0
2026-05-25 08:38:19.247399,1779712699.247399,2164992,-1664701,164290359,-32077,-218182,45599,61,0cb3fe00,0.0,0.0,0.0,0.0,0.0,0.0
2026-05-25 08:38:19.255095,1779712699.255095,2284153,-1666049,164397876,-52394,-205427,52870,61,0cb3fe00,0.0,0.0,0.0,0.0,0.0,0.0
2026-05-25 08:38:19.257069,1779712699.257069,2284153,-1666049,164397876,-52394,-205427,52870,61,0cb3fe00,0.0,0.0,0.0,0.0,0.0,0.0
2026-05-25 08:38:19.265090,1779712699.265090,2411027,-1617095,164409457,-40334,-160820,49035,61,0cb3fe00,0.0,0.0,0.0,0.0,0.0,0.0
2026-05-25 08:38:19.267273,1779712699.267273,2411027,-1617095,164409457,-40334,-160820,49035,61,0cb3fe00,0.0,0.0,0.0,0.0,0.0,0.0
2026-05-25 08:38:19.275068,1779712699.275068,2366759,-1583699,164408480,-51122,-113635,80132,61,0cb3fe00,0.0,0.0,0.0,0.0,0.0,0.0
2026-05-25 08:38:19.276900,1779712699.276900,2366759,-1583699,164408480,-51122,-113635,80132,61,0cb3fe00,0.0,0.0,0.0,0.0,0.0,0.0
2026-05-25 08:38:19.285054,1779712699.285054,2335796,-1559755,164374410,-38658,-79246,95610,61,0cb3fe00,0.0,0.0,0.0,0.0,0.0,0.0
2026-05-25 08:38:19.286813,1779712699.286813,2335796,-1559755,164374410,-38658,-79246,95610,61,0cb3fe00,0.0,0.0,0.0,0.0,0.0,0.0
2026-05-25 08:38:19.294931,1779712699.294931,2219858,-1642474,164365480,-25657,-71306,82290,61,0cb3fe00,0.0,0.0,0.0,0.0,0.0,0.0
2026-05-25 08:38:19.296658,1779712699.296658,2219858,-1642474,164365480,-25657,-71306,82290,61,0cb3fe00,0.0,0.0,0.0,0.0,0.0,0.0
2026-05-25 08:38:19.305242,1779712699.305242,2164688,-1721899,164268070,-9017,-80648,57244,61,0cb3fe00,0.0,0.0,0.0,0.0,0.0,0.0
2026-05-25 08:38:19.306952,1779712699.306952,2164688,-1721899,164268070,-9017,-80648,57244,61,0cb3fe00,0.0,0.0,0.0,0.0,0.0,0.0
2026-05-25 08:38:19.315234,1779712699.315234,2093877,-1820071,164153565,-11311,-88887,45663,61,0cb3fe00,0.0,0.0,0.0,0.0,0.0,0.0
2026-05-25 08:38:19.316896,1779712699.316896,2093877,-1820071,164153565,-11311,-88887,45663,61,0cb3fe00,0.0,0.0,0.0,0.0,0.0,0.0
2026-05-25 08:38:19.325235,1779712699.325235,2037621,-1853364,164131849,-53484,-102006,52075,61,0cb3fe00,0.0,0.0,0.0,0.0,0.0,0.0
2026-05-25 08:38:19.326852,1779712699.326852,2037621,-1853364,164131849,-53484,-102006,52075,61,0cb3fe00,0.0,0.0,0.0,0.0,0.0,0.0
2026-05-25 08:38:19.334997,1779712699.334997,2137740,-1715799,163191014,-532438,-103909,135946,61,0cb3fe00,0.0,0.0,0.0,0.0,0.0,0.0
2026-05-25 08:38:19.336637,1779712699.336637,2137740,-1715799,163191014,-532438,-103909,135946,61,0cb3fe00,0.0,0.0,0.0,0.0,0.0,0.0
2026-05-25 08:38:19.345171,1779712699.345171,1844359,-1323419,160170772,-2015641,-656741,195273,61,0cb3fe00,0.0,0.0,0.0,0.0,0.0,0.0
2026-05-25 08:38:19.346849,1779712699.346849,1844359,-1323419,160170772,-2015641,-656741,195273,61,0cb3fe00,0.0,0.0,0.0,0.0,0.0,0.0
2026-05-25 08:38:19.355181,1779712699.355181,99723,-2279047,165266444,-2356312,-1270345,100746,61,0cb3fe00,0.0,0.0,0.0,0.0,0.0,0.0
2026-05-25 08:38:19.356782,1779712699.356782,99723,-2279047,165266444,-2356312,-1270345,100746,61,0cb3fe00,0.0,0.0,0.0,0.0,0.0,0.0
2026-05-25 08:38:19.365031,1779712699.365031,-62925,-2100651,166277007,-843504,-871886,196379,61,0cb3fe00,0.0,0.0,0.0,0.0,0.0,0.0
2026-05-25 08:38:19.366552,1779712699.366552,-62925,-2100651,166277007,-843504,-871886,196379,61,0cb3fe00,0.0,0.0,0.0,0.0,0.0,0.0
2026-05-25 08:38:19.374808,1779712699.374808,2435023,-1616113,166827300,881616,-1015370,-60552,61,0cb2fe00,0.0,0.0,0.0,0.0,0.0,0.0
2026-05-25 08:38:19.376448,1779712699.376448,2435023,-1616113,166827300,881616,-1015370,-60552,61,0cb2fe00,0.0,0.0,0.0,0.0,0.0,0.0
2026-05-25 08:38:19.384759,1779712699.384759,5842725,-814139,165477464,1236493,-92486,-26118,61,0cb2fe00,0.0,0.0,0.0,0.0,0.0,0.0
2026-05-25 08:38:19.385463,1779712699.385463,5842725,-814139,165477464,1236493,-92486,-26118,61,0cb2fe00,0.0,0.0,0.0,0.0,0.0,0.0
2026-05-25 08:38:19.394300,1779712699.394300,6676416,-961002,163119426,66140,-14637,-101783,61,0cb2fe00,0.0,0.0,0.0,0.0,0.0,0.0
2026-05-25 08:38:19.394888,1779712699.394888,6676416,-961002,163119426,66140,-14637,-101783,61,0cb2fe00,0.0,0.0,0.0,0.0,0.0,0.0
2026-05-25 08:38:19.404304,1779712699.404304,4303199,-2178703,167734570,-133452,639567,-26854,61,0cb2fe00,0.0,0.0,0.0,0.0,0.0,0.0
2026-05-25 08:38:19.405537,1779712699.405537,4303199,-2178703,167734570,-133452,639567,-26854,61,0cb2fe00,0.0,0.0,0.0,0.0,0.0,0.0
2026-05-25 08:38:19.415197,1779712699.415197,1966427,-2147451,164078174,209383,1404427,400222,61,0cb2fe00,0.0,0.0,0.0,0.0,0.0,0.0
2026-05-25 08:38:19.417088,1779712699.417088,1966427,-2147451,164078174,209383,1404427,400222,61,0cb2fe00,0.0,0.0,0.0,0.0,0.0,0.0
2026-05-25 08:38:19.425212,1779712699.425212,-65778,-1520020,161818212,-124517,685955,237707,61,0cb2fe00,0.0,0.0,0.0,0.0,0.0,0.0
2026-05-25 08:38:19.427119,1779712699.427119,-65778,-1520020,161818212,-124517,685955,237707,61,0cb2fe00,0.0,0.0,0.0,0.0,0.0,0.0
2026-05-25 08:38:19.434979,1779712699.434979,-1636147,-1501865,161696582,-766297,217049,299999,61,0cb2fe00,0.0,0.0,0.0,0.0,0.0,0.0
2026-05-25 08:38:19.436610,1779712699.436610,-1636147,-1501865,161696582,-766297,217049,299999,61,0cb2fe00,0.0,0.0,0.0,0.0,0.0,0.0
2026-05-25 08:38:19.444697,1779712699.444697,-2207365,-1048083,161519090,-919569,-953832,-79693,61,0cb2fe00,0.0,0.0,0.0,0.0,0.0,0.0
2026-05-25 08:38:19.446180,1779712699.446180,-2207365,-1048083,161519090,-919569,-953832,-79693,61,0cb2fe00,0.0,0.0,0.0,0.0,0.0,0.0
2026-05-25 08:38:19.455089,1779712699.455089,-382132,-1744585,164558518,-571760,-1568962,-176163,61,0cb2fe00,0.0,0.0,0.0,0.0,0.0,0.0
2026-05-25 08:38:19.456719,1779712699.456719,-382132,-1744585,164558518,-571760,-1568962,-176163,61,0cb2fe00,0.0,0.0,0.0,0.0,0.0,0.0
2026-05-25 08:38:19.465098,1779712699.465098,2918906,-1488798,163535917,-422748,-1556007,-191320,61,0cb1fe00,0.0,0.0,0.0,0.0,0.0,0.0
2026-05-25 08:38:19.466786,1779712699.466786,2918906,-1488798,163535917,-422748,-1556007,-191320,61,0cb1fe00,0.0,0.0,0.0,0.0,0.0,0.0
2026-05-25 08:38:19.475268,1779712699.475268,4989079,-2159979,165869182,-645670,-1518628,-125330,61,0cb1fe00,0.0,0.0,0.0,0.0,0.0,0.0
2026-05-25 08:38:19.476927,1779712699.476927,4989079,-2159979,165869182,-645670,-1518628,-125330,61,0cb1fe00,0.0,0.0,0.0,0.0,0.0,0.0
2026-05-25 08:38:19.484943,1779712699.484943,5607706,-2085983,166554486,-516974,-516262,174778,61,0cb1fe00,0.0,0.0,0.0,0.0,0.0,0.0
2026-05-25 08:38:19.486540,1779712699.486540,5607706,-2085983,166554486,-516974,-516262,174778,61,0cb1fe00,0.0,0.0,0.0,0.0,0.0,0.0
2026-05-25 08:38:19.502425,1779712699.502425,4423403,-1878521,165957907,-213896,-98449,201516,61,0cb1fe00,0.0,0.0,0.0,0.0,0.0,0.0
2026-05-25 08:38:19.505019,1779712699.505019,4423403,-1878521,165957907,-213896,-98449,201516,61,0cb1fe00,0.0,0.0,0.0,0.0,0.0,0.0
2026-05-25 08:38:19.506536,1779712699.506536,3284836,-1718726,165528575,101275,504793,202003,61,0cb1fe00,0.0,0.0,0.0,0.0,0.0,0.0
2026-05-25 08:38:19.508043,1779712699.508043,3284836,-1718726,165528575,101275,504793,202003,61,0cb1fe00,0.0,0.0,0.0,0.0,0.0,0.0
2026-05-25 08:38:19.515069,1779712699.515069,1840286,-1722613,163557796,167122,405245,34675,61,0cb1fe00,0.0,0.0,0.0,0.0,0.0,0.0
2026-05-25 08:38:19.516580,1779712699.516580,1840286,-1722613,163557796,167122,405245,34675,61,0cb1fe00,0.0,0.0,0.0,0.0,0.0,0.0
2026-05-25 08:38:19.525022,1779712699.525022,1412476,-2202087,164037400,67257,241743,-56685,61,0cb1fe00,0.0,0.0,0.0,0.0,0.0,0.0
2026-05-25 08:38:19.526635,1779712699.526635,1412476,-2202087,164037400,67257,241743,-56685,61,0cb1fe00,0.0,0.0,0.0,0.0,0.0,0.0
2026-05-25 08:38:19.535264,1779712699.535264,1036055,-2448335,163468253,8473,133777,43508,61,0cb2fe00,0.0,0.0,0.0,0.0,0.0,0.0
2026-05-25 08:38:19.536944,1779712699.536944,1036055,-2448335,163468253,8473,133777,43508,61,0cb2fe00,0.0,0.0,0.0,0.0,0.0,0.0
2026-05-25 08:38:19.545123,1779712699.545123,1320837,-2403807,163789242,-102578,-128715,106879,61,0cb2fe00,0.0,0.0,0.0,0.0,0.0,0.0
2026-05-25 08:38:19.546803,1779712699.546803,1320837,-2403807,163789242,-102578,-128715,106879,61,0cb2fe00,0.0,0.0,0.0,0.0,0.0,0.0
2026-05-25 08:38:19.555354,1779712699.555354,1397630,-1966385,164013508,-132303,-193894,219717,61,0cb2fe00,0.0,0.0,0.0,0.0,0.0,0.0
2026-05-25 08:38:19.557058,1779712699.557058,1397630,-1966385,164013508,-132303,-193894,219717,61,0cb2fe00,0.0,0.0,0.0,0.0,0.0,0.0
2026-05-25 08:38:19.565158,1779712699.565158,1824099,-1385819,163810783,-149272,-429889,134493,61,0cb1fe00,0.0,0.0,0.0,0.0,0.0,0.0
2026-05-25 08:38:19.566838,1779712699.566838,1824099,-1385819,163810783,-149272,-429889,134493,61,0cb1fe00,0.0,0.0,0.0,0.0,0.0,0.0
2026-05-25 08:38:19.575331,1779712699.575331,2188432,-1103089,164521925,-129639,-469215,14182,61,0cb1fe00,0.0,0.0,0.0,0.0,0.0,0.0
2026-05-25 08:38:19.577022,1779712699.577022,2188432,-1103089,164521925,-129639,-469215,14182,61,0cb1fe00,0.0,0.0,0.0,0.0,0.0,0.0
2026-05-25 08:38:19.584892,1779712699.584892,2826332,-1148736,164454997,-92139,-457580,-92922,61,0cb1fe00,0.0,0.0,0.0,0.0,0.0,0.0
2026-05-25 08:38:19.586549,1779712699.586549,2826332,-1148736,164454997,-92139,-457580,-92922,61,0cb1fe00,0.0,0.0,0.0,0.0,0.0,0.0
2026-05-25 08:38:19.601011,1779712699.601011,3097489,-1505947,164974555,-43929,-329935,-59166,61,0cb1fe00,0.0,0.0,0.0,0.0,0.0,0.0
2026-05-25 08:38:19.604803,1779712699.604803,3097489,-1505947,164974555,-43929,-329935,-59166,61,0cb1fe00,0.0,0.0,0.0,0.0,0.0,0.0
2026-05-25 08:38:19.605265,1779712699.605265,3133609,-1890776,164818637,-37074,-70941,101548,61,0cb1fe00,0.0,0.0,0.0,0.0,0.0,0.0
2026-05-25 08:38:19.605797,1779712699.605797,3133609,-1890776,164818637,-37074,-70941,101548,61,0cb1fe00,0.0,0.0,0.0,0.0,0.0,0.0
2026-05-25 08:38:19.616464,1779712699.616464,2564222,-1974837,164533715,-47871,71549,220821,61,0cb1fe00,0.0,0.0,0.0,0.0,0.0,0.0
2026-05-25 08:38:19.617045,1779712699.617045,2564222,-1974837,164533715,-47871,71549,220821,61,0cb1fe00,0.0,0.0,0.0,0.0,0.0,0.0
2026-05-25 08:38:19.657705,1779712699.657705,2019089,-2020765,164336695,-61521,123014,255254,61,0cb1fe00,0.0,0.0,0.0,0.0,0.0,0.0
2026-05-25 08:38:19.658293,1779712699.658293,2019089,-2020765,164336695,-61521,123014,255254,61,0cb1fe00,0.0,0.0,0.0,0.0,0.0,0.0
2026-05-25 08:38:19.659135,1779712699.659135,1674889,-1859750,163951146,-50927,70035,193984,61,0cb1fe00,0.0,0.0,0.0,0.0,0.0,0.0
2026-05-25 08:38:19.659673,1779712699.659673,1674889,-1859750,163951146,-50927,70035,193984,61,0cb1fe00,0.0,0.0,0.0,0.0,0.0,0.0
2026-05-25 08:38:19.660374,1779712699.660374,1859640,-2031856,164199361,-49918,-76508,57846,61,0cb1fe00,0.0,0.0,0.0,0.0,0.0,0.0
2026-05-25 08:38:19.660939,1779712699.660939,1859640,-2031856,164199361,-49918,-76508,57846,61,0cb1fe00,0.0,0.0,0.0,0.0,0.0,0.0
2026-05-25 08:38:19.661384,1779712699.661384,2189271,-2250572,164382276,-3278,-79567,-15287,61,0cb1fe00,0.0,0.0,0.0,0.0,0.0,0.0
2026-05-25 08:38:19.661921,1779712699.661921,2189271,-2250572,164382276,-3278,-79567,-15287,61,0cb1fe00,0.0,0.0,0.0,0.0,0.0,0.0
2026-05-25 08:38:19.663782,1779712699.663782,2392724,-2449986,164589525,62557,-66145,16901,61,0cb1fe00,0.0,0.0,0.0,0.0,0.0,0.0
2026-05-25 08:38:19.664332,1779712699.664332,2392724,-2449986,164589525,62557,-66145,16901,61,0cb1fe00,0.0,0.0,0.0,0.0,0.0,0.0
2026-05-25 08:38:19.674016,1779712699.674016,2261064,-2305442,164492182,133031,83172,114180,61,0cb1fe00,0.0,0.0,0.0,0.0,0.0,0.0
2026-05-25 08:38:19.674689,1779712699.674689,2261064,-2305442,164492182,133031,83172,114180,61,0cb1fe00,0.0,0.0,0.0,0.0,0.0,0.0
2026-05-25 08:38:19.683929,1779712699.683929,1848954,-1797873,164143188,119954,75168,161299,61,0cb0fe00,0.0,0.0,0.0,0.0,0.0,0.0
2026-05-25 08:38:19.684493,1779712699.684493,1848954,-1797873,164143188,119954,75168,161299,61,0cb0fe00,0.0,0.0,0.0,0.0,0.0,0.0
2026-05-25 08:38:19.694085,1779712699.694085,1628516,-1249476,163982332,128700,-48260,142763,61,0cb0fe00,0.0,0.0,0.0,0.0,0.0,0.0
2026-05-25 08:38:19.694799,1779712699.694799,1628516,-1249476,163982332,128700,-48260,142763,61,0cb0fe00,0.0,0.0,0.0,0.0,0.0,0.0
2026-05-25 08:38:19.704467,1779712699.704467,1787762,-982022,163949848,87109,-201582,49098,61,0cb0fe00,0.0,0.0,0.0,0.0,0.0,0.0
2026-05-25 08:38:19.705383,1779712699.705383,1787762,-982022,163949848,87109,-201582,49098,61,0cb0fe00,0.0,0.0,0.0,0.0,0.0,0.0
2026-05-25 08:38:19.714273,1779712699.714273,2376253,-1086766,164280154,42362,-303938,7043,61,0cb0fe00,0.0,0.0,0.0,0.0,0.0,0.0
2026-05-25 08:38:19.715435,1779712699.715435,2376253,-1086766,164280154,42362,-303938,7043,61,0cb0fe00,0.0,0.0,0.0,0.0,0.0,0.0
2026-05-25 08:38:19.724380,1779712699.724380,2923756,-1530592,164657597,12945,-250085,16588,61,0cb0fe00,0.0,0.0,0.0,0.0,0.0,0.0
2026-05-25 08:38:19.725570,1779712699.725570,2923756,-1530592,164657597,12945,-250085,16588,61,0cb0fe00,0.0,0.0,0.0,0.0,0.0,0.0
2026-05-25 08:38:19.734578,1779712699.734578,3037095,-1778616,164761622,22775,-94471,116132,61,0cb0fe00,0.0,0.0,0.0,0.0,0.0,0.0
2026-05-25 08:38:19.736021,1779712699.736021,3037095,-1778616,164761622,22775,-94471,116132,61,0cb0fe00,0.0,0.0,0.0,0.0,0.0,0.0
2026-05-25 08:38:19.744500,1779712699.744500,2656554,-1937369,164614729,43200,77947,198197,61,0cb0fe00,0.0,0.0,0.0,0.0,0.0,0.0
2026-05-25 08:38:19.745752,1779712699.745752,2656554,-1937369,164614729,43200,77947,198197,61,0cb0fe00,0.0,0.0,0.0,0.0,0.0,0.0
2026-05-25 08:38:19.754824,1779712699.754824,2001045,-1870838,164180857,53116,128250,167248,61,0cb0fe00,0.0,0.0,0.0,0.0,0.0,0.0
2026-05-25 08:38:19.756297,1779712699.756297,2001045,-1870838,164180857,53116,128250,167248,61,0cb0fe00,0.0,0.0,0.0,0.0,0.0,0.0
2026-05-25 08:38:19.764598,1779712699.764598,1568744,-1932603,163998881,69540,9917,66495,61,0cb0fe00,0.0,0.0,0.0,0.0,0.0,0.0
2026-05-25 08:38:19.765885,1779712699.765885,1568744,-1932603,163998881,69540,9917,66495,61,0cb0fe00,0.0,0.0,0.0,0.0,0.0,0.0
2026-05-25 08:38:19.774866,1779712699.774866,1668821,-2046658,164016056,105048,-103363,-43421,61,0cb0fe00,0.0,0.0,0.0,0.0,0.0,0.0
2026-05-25 08:38:19.776417,1779712699.776417,1668821,-2046658,164016056,105048,-103363,-43421,61,0cb0fe00,0.0,0.0,0.0,0.0,0.0,0.0
2026-05-25 08:38:19.784714,1779712699.784714,2093653,-2153274,164250643,102835,-174092,-65506,61,0cb0fe00,0.0,0.0,0.0,0.0,0.0,0.0
2026-05-25 08:38:19.786115,1779712699.786115,2093653,-2153274,164250643,102835,-174092,-65506,61,0cb0fe00,0.0,0.0,0.0,0.0,0.0,0.0
2026-05-25 08:38:19.794916,1779712699.794916,2571486,-2034939,164482657,71030,-103955,36481,61,0cb0fe00,0.0,0.0,0.0,0.0,0.0,0.0
2026-05-25 08:38:19.796498,1779712699.796498,2571486,-2034939,164482657,71030,-103955,36481,61,0cb0fe00,0.0,0.0,0.0,0.0,0.0,0.0
2026-05-25 08:38:19.805012,1779712699.805012,2675415,-1665021,164511373,8501,-2956,180223,61,0cb0fe00,0.0,0.0,0.0,0.0,0.0,0.0
2026-05-25 08:38:19.806755,1779712699.806755,2675415,-1665021,164511373,8501,-2956,180223,61,0cb0fe00,0.0,0.0,0.0,0.0,0.0,0.0
2026-05-25 08:38:19.814990,1779712699.814990,2438203,-1138427,164357861,-1390,51558,254174,61,0cb0fe00,0.0,0.0,0.0,0.0,0.0,0.0
2026-05-25 08:38:19.816573,1779712699.816573,2438203,-1138427,164357861,-1390,51558,254174,61,0cb0fe00,0.0,0.0,0.0,0.0,0.0,0.0
2026-05-25 08:38:19.824950,1779712699.824950,2053838,-789122,164129613,-27417,-5842,201759,61,0cb0fe00,0.0,0.0,0.0,0.0,0.0,0.0
2026-05-25 08:38:19.826510,1779712699.826510,2053838,-789122,164129613,-27417,-5842,201759,61,0cb0fe00,0.0,0.0,0.0,0.0,0.0,0.0
2026-05-25 08:38:19.835104,1779712699.835104,1842697,-876669,164073514,-21678,-122701,77746,61,0cb0fe00,0.0,0.0,0.0,0.0,0.0,0.0
2026-05-25 08:38:19.836793,1779712699.836793,1842697,-876669,164073514,-21678,-122701,77746,61,0cb0fe00,0.0,0.0,0.0,0.0,0.0,0.0
2026-05-25 08:38:19.845001,1779712699.845001,1975194,-1449412,164165704,-37484,-223628,2058,61,0cb0fe00,0.0,0.0,0.0,0.0,0.0,0.0
2026-05-25 08:38:19.847170,1779712699.847170,1975194,-1449412,164165704,-37484,-223628,2058,61,0cb0fe00,0.0,0.0,0.0,0.0,0.0,0.0
2026-05-25 08:38:19.855199,1779712699.855199,2143606,-2176459,164320404,-64540,-255736,3538,61,0cb0fe00,0.0,0.0,0.0,0.0,0.0,0.0
2026-05-25 08:38:19.857097,1779712699.857097,2143606,-2176459,164320404,-64540,-255736,3538,61,0cb0fe00,0.0,0.0,0.0,0.0,0.0,0.0
2026-05-25 08:38:19.865319,1779712699.865319,2204086,-2664900,164390687,-91567,-209404,49867,61,0cb0fe00,0.0,0.0,0.0,0.0,0.0,0.0
2026-05-25 08:38:19.867290,1779712699.867290,2204086,-2664900,164390687,-91567,-209404,49867,61,0cb0fe00,0.0,0.0,0.0,0.0,0.0,0.0
2026-05-25 08:38:19.875204,1779712699.875204,2136504,-2731896,164344765,-54387,-156349,104397,61,0cb0fe00,0.0,0.0,0.0,0.0,0.0,0.0
2026-05-25 08:38:19.877071,1779712699.877071,2136504,-2731896,164344765,-54387,-156349,104397,61,0cb0fe00,0.0,0.0,0.0,0.0,0.0,0.0
2026-05-25 08:38:19.884862,1779712699.884862,2109746,-2368543,164322446,16139,-126934,100273,61,0cb0fe00,0.0,0.0,0.0,0.0,0.0,0.0
2026-05-25 08:38:19.886667,1779712699.886667,2109746,-2368543,164322446,16139,-126934,100273,61,0cb0fe00,0.0,0.0,0.0,0.0,0.0,0.0
2026-05-25 08:38:19.893995,1779712699.893995,2360100,-1839339,164350774,47093,-132928,59018,61,0cb0fe00,0.0,0.0,0.0,0.0,0.0,0.0
2026-05-25 08:38:19.894709,1779712699.894709,2360100,-1839339,164350774,47093,-132928,59018,61,0cb0fe00,0.0,0.0,0.0,0.0,0.0,0.0
2026-05-25 08:38:19.903953,1779712699.903953,2674674,-1315467,164474785,69396,-89666,24977,61,0cb0fe00,0.0,0.0,0.0,0.0,0.0,0.0
2026-05-25 08:38:19.904910,1779712699.904910,2674674,-1315467,164474785,69396,-89666,24977,61,0cb0fe00,0.0,0.0,0.0,0.0,0.0,0.0
2026-05-25 08:38:19.914167,1779712699.914167,2960432,-990321,164595763,44026,20489,35567,61,0cb0fe00,0.0,0.0,0.0,0.0,0.0,0.0
2026-05-25 08:38:19.915223,1779712699.915223,2960432,-990321,164595763,44026,20489,35567,61,0cb0fe00,0.0,0.0,0.0,0.0,0.0,0.0
2026-05-25 08:38:19.924611,1779712699.924611,2783900,-893654,164520212,17247,119776,107423,61,0cb0fe00,0.0,0.0,0.0,0.0,0.0,0.0
2026-05-25 08:38:19.926255,1779712699.926255,2783900,-893654,164520212,17247,119776,107423,61,0cb0fe00,0.0,0.0,0.0,0.0,0.0,0.0
2026-05-25 08:38:19.934452,1779712699.934452,2294771,-979937,164338965,-42448,171215,150224,61,0cb0fe00,0.0,0.0,0.0,0.0,0.0,0.0
2026-05-25 08:38:19.935866,1779712699.935866,2294771,-979937,164338965,-42448,171215,150224,61,0cb0fe00,0.0,0.0,0.0,0.0,0.0,0.0
2026-05-25 08:38:19.944024,1779712699.944024,1626296,-1262349,163985587,-85373,73404,165754,61,0caffe00,0.0,0.0,0.0,0.0,0.0,0.0
2026-05-25 08:38:19.944868,1779712699.944868,1626296,-1262349,163985587,-85373,73404,165754,61,0caffe00,0.0,0.0,0.0,0.0,0.0,0.0
2026-05-25 08:38:19.953935,1779712699.953935,1239837,-1745746,163793467,-123313,-106207,80183,61,0caffe00,0.0,0.0,0.0,0.0,0.0,0.0
2026-05-25 08:38:19.954545,1779712699.954545,1239837,-1745746,163793467,-123313,-106207,80183,61,0caffe00,0.0,0.0,0.0,0.0,0.0,0.0
2026-05-25 08:38:19.963932,1779712699.963932,1343903,-2374714,163858719,-131504,-292222,12258,61,0caffe00,0.0,0.0,0.0,0.0,0.0,0.0
2026-05-25 08:38:19.964877,1779712699.964877,1343903,-2374714,163858719,-131504,-292222,12258,61,0caffe00,0.0,0.0,0.0,0.0,0.0,0.0
2026-05-25 08:38:19.973842,1779712699.973842,1886751,-2831341,164230867,-86197,-377117,-21567,61,0caffe00,0.0,0.0,0.0,0.0,0.0,0.0
2026-05-25 08:38:19.974577,1779712699.974577,1886751,-2831341,164230867,-86197,-377117,-21567,61,0caffe00,0.0,0.0,0.0,0.0,0.0,0.0
2026-05-25 08:38:19.983950,1779712699.983950,2555189,-2905783,164608973,-70403,-313446,53102,61,0caffe00,0.0,0.0,0.0,0.0,0.0,0.0
2026-05-25 08:38:19.984873,1779712699.984873,2555189,-2905783,164608973,-70403,-313446,53102,61,0caffe00,0.0,0.0,0.0,0.0,0.0,0.0
2026-05-25 08:38:19.994517,1779712699.994517,3000266,-2508451,164865392,6267,-129545,128172,61,0caffe00,0.0,0.0,0.0,0.0,0.0,0.0
2026-05-25 08:38:19.995467,1779712699.995467,3000266,-2508451,164865392,6267,-129545,128172,61,0caffe00,0.0,0.0,0.0,0.0,0.0,0.0
2026-05-25 08:38:20.003799,1779712700.003799,3026875,-1802781,164860892,51357,43205,153689,61,0caffe00,0.0,0.0,0.0,0.0,0.0,0.0
2026-05-25 08:38:20.004646,1779712700.004646,3026875,-1802781,164860892,51357,43205,153689,61,0caffe00,0.0,0.0,0.0,0.0,0.0,0.0
2026-05-25 08:38:20.014076,1779712700.014076,2694255,-1068121,164630906,131755,181120,128784,61,0caffe00,0.0,0.0,0.0,0.0,0.0,0.0
2026-05-25 08:38:20.015038,1779712700.015038,2694255,-1068121,164630906,131755,181120,128784,61,0caffe00,0.0,0.0,0.0,0.0,0.0,0.0
2026-05-25 08:38:20.023807,1779712700.023807,2280872,-702679,164295743,135201,188667,76373,61,0caffe00,0.0,0.0,0.0,0.0,0.0,0.0
2026-05-25 08:38:20.024401,1779712700.024401,2280872,-702679,164295743,135201,188667,76373,61,0caffe00,0.0,0.0,0.0,0.0,0.0,0.0
2026-05-25 08:38:20.033939,1779712700.033939,1929819,-761809,164019897,99634,112778,57674,61,0caffe00,0.0,0.0,0.0,0.0,0.0,0.0
2026-05-25 08:38:20.034630,1779712700.034630,1929819,-761809,164019897,99634,112778,57674,61,0caffe00,0.0,0.0,0.0,0.0,0.0,0.0
2026-05-25 08:38:20.043951,1779712700.043951,1679782,-1212676,163910586,680,-16119,70413,61,0caffe00,0.0,0.0,0.0,0.0,0.0,0.0
2026-05-25 08:38:20.045821,1779712700.045821,1679782,-1212676,163910586,680,-16119,70413,61,0caffe00,0.0,0.0,0.0,0.0,0.0,0.0
2026-05-25 08:38:20.055404,1779712700.055404,1541776,-1747217,163930333,-71755,-169381,99722,61,0caffe00,0.0,0.0,0.0,0.0,0.0,0.0
2026-05-25 08:38:20.056904,1779712700.056904,1541776,-1747217,163930333,-71755,-169381,99722,61,0caffe00,0.0,0.0,0.0,0.0,0.0,0.0
2026-05-25 08:38:20.064571,1779712700.064571,1545774,-2189223,163988888,-103510,-273910,130510,61,0caefe00,0.0,0.0,0.0,0.0,0.0,0.0
2026-05-25 08:38:20.065867,1779712700.065867,1545774,-2189223,163988888,-103510,-273910,130510,61,0caefe00,0.0,0.0,0.0,0.0,0.0,0.0
2026-05-25 08:38:20.073758,1779712700.073758,1814565,-2409154,164119935,-84503,-369121,109511,61,0caffe00,0.0,0.0,0.0,0.0,0.0,0.0
2026-05-25 08:38:20.074406,1779712700.074406,1814565,-2409154,164119935,-84503,-369121,109511,61,0caffe00,0.0,0.0,0.0,0.0,0.0,0.0
2026-05-25 08:38:20.083600,1779712700.083600,2289525,-2392761,164326307,-63079,-372600,48488,61,0caffe00,0.0,0.0,0.0,0.0,0.0,0.0
2026-05-25 08:38:20.084219,1779712700.084219,2289525,-2392761,164326307,-63079,-372600,48488,61,0caffe00,0.0,0.0,0.0,0.0,0.0,0.0
2026-05-25 08:38:20.094751,1779712700.094751,2799868,-2244304,164650194,-43235,-307221,367,61,0caffe00,0.0,0.0,0.0,0.0,0.0,0.0
2026-05-25 08:38:20.095431,1779712700.095431,2799868,-2244304,164650194,-43235,-307221,367,61,0caffe00,0.0,0.0,0.0,0.0,0.0,0.0
2026-05-25 08:38:20.103977,1779712700.103977,3112392,-1953322,164863447,-1303,-123734,24339,61,0caffe00,0.0,0.0,0.0,0.0,0.0,0.0
2026-05-25 08:38:20.104629,1779712700.104629,3112392,-1953322,164863447,-1303,-123734,24339,61,0caffe00,0.0,0.0,0.0,0.0,0.0,0.0
2026-05-25 08:38:20.113904,1779712700.113904,3031494,-1569700,164824043,40987,90876,88250,61,0caefe00,0.0,0.0,0.0,0.0,0.0,0.0
2026-05-25 08:38:20.114652,1779712700.114652,3031494,-1569700,164824043,40987,90876,88250,61,0caefe00,0.0,0.0,0.0,0.0,0.0,0.0
2026-05-25 08:38:20.123801,1779712700.123801,2608586,-1176883,164510653,72443,228983,156985,61,0caefe00,0.0,0.0,0.0,0.0,0.0,0.0
2026-05-25 08:38:20.124669,1779712700.124669,2608586,-1176883,164510653,72443,228983,156985,61,0caefe00,0.0,0.0,0.0,0.0,0.0,0.0
2026-05-25 08:38:20.134025,1779712700.134025,2039640,-984810,164112398,55329,229028,161411,61,0caffe00,0.0,0.0,0.0,0.0,0.0,0.0
2026-05-25 08:38:20.135042,1779712700.135042,2039640,-984810,164112398,55329,229028,161411,61,0caffe00,0.0,0.0,0.0,0.0,0.0,0.0
2026-05-25 08:38:20.143766,1779712700.143766,1546223,-1126856,163839342,-9452,84445,127288,61,0caffe00,0.0,0.0,0.0,0.0,0.0,0.0
2026-05-25 08:38:20.144455,1779712700.144455,1546223,-1126856,163839342,-9452,84445,127288,61,0caffe00,0.0,0.0,0.0,0.0,0.0,0.0
2026-05-25 08:38:20.154280,1779712700.154280,1388339,-1600313,163753227,-60481,-124468,67949,61,0caffe00,0.0,0.0,0.0,0.0,0.0,0.0
2026-05-25 08:38:20.155330,1779712700.155330,1388339,-1600313,163753227,-60481,-124468,67949,61,0caffe00,0.0,0.0,0.0,0.0,0.0,0.0
2026-05-25 08:38:20.166164,1779712700.166164,1634108,-2135950,163918267,-113807,-312266,32141,61,0caefe00,0.0,0.0,0.0,0.0,0.0,0.0
2026-05-25 08:38:20.167319,1779712700.167319,1634108,-2135950,163918267,-113807,-312266,32141,61,0caefe00,0.0,0.0,0.0,0.0,0.0,0.0
2026-05-25 08:38:20.173991,1779712700.173991,2016148,-2543788,164231320,-138883,-364872,51542,61,0caefe00,0.0,0.0,0.0,0.0,0.0,0.0
2026-05-25 08:38:20.174722,1779712700.174722,2016148,-2543788,164231320,-138883,-364872,51542,61,0caefe00,0.0,0.0,0.0,0.0,0.0,0.0
2026-05-25 08:38:20.184244,1779712700.184244,2399462,-2588697,164513098,-97565,-303554,94691,61,0caefe00,0.0,0.0,0.0,0.0,0.0,0.0
2026-05-25 08:38:20.185299,1779712700.185299,2399462,-2588697,164513098,-97565,-303554,94691,61,0caefe00,0.0,0.0,0.0,0.0,0.0,0.0
2026-05-25 08:38:20.194843,1779712700.194843,2585073,-2286142,164656437,-18973,-202001,130134,61,0caefe00,0.0,0.0,0.0,0.0,0.0,0.0
2026-05-25 08:38:20.196137,1779712700.196137,2585073,-2286142,164656437,-18973,-202001,130134,61,0caefe00,0.0,0.0,0.0,0.0,0.0,0.0
2026-05-25 08:38:20.204023,1779712700.204023,2647448,-1853035,164653230,93651,-92347,114019,61,0caefe00,0.0,0.0,0.0,0.0,0.0,0.0
2026-05-25 08:38:20.204959,1779712700.204959,2647448,-1853035,164653230,93651,-92347,114019,61,0caefe00,0.0,0.0,0.0,0.0,0.0,0.0
2026-05-25 08:38:20.213901,1779712700.213901,2680016,-1493514,164619276,192351,-13830,85037,61,0caefe00,0.0,0.0,0.0,0.0,0.0,0.0
2026-05-25 08:38:20.214757,1779712700.214757,2680016,-1493514,164619276,192351,-13830,85037,61,0caefe00,0.0,0.0,0.0,0.0,0.0,0.0
2026-05-25 08:38:20.223637,1779712700.223637,2652902,-1347543,164559228,250855,84120,53491,61,0caefe00,0.0,0.0,0.0,0.0,0.0,0.0
2026-05-25 08:38:20.224265,1779712700.224265,2652902,-1347543,164559228,250855,84120,53491,61,0caefe00,0.0,0.0,0.0,0.0,0.0,0.0
2026-05-25 08:38:20.233761,1779712700.233761,2550827,-1394974,164453794,263910,137829,67788,61,0caefe00,0.0,0.0,0.0,0.0,0.0,0.0
2026-05-25 08:38:20.234362,1779712700.234362,2550827,-1394974,164453794,263910,137829,67788,61,0caefe00,0.0,0.0,0.0,0.0,0.0,0.0
2026-05-25 08:38:20.243747,1779712700.243747,2252793,-1501694,164233788,214983,161035,113001,61,0caefe00,0.0,0.0,0.0,0.0,0.0,0.0
2026-05-25 08:38:20.244807,1779712700.244807,2252793,-1501694,164233788,214983,161035,113001,61,0caefe00,0.0,0.0,0.0,0.0,0.0,0.0
2026-05-25 08:38:20.254113,1779712700.254113,1901736,-1622599,164076748,150502,114167,152138,61,0caefe00,0.0,0.0,0.0,0.0,0.0,0.0
2026-05-25 08:38:20.254969,1779712700.254969,1901736,-1622599,164076748,150502,114167,152138,61,0caefe00,0.0,0.0,0.0,0.0,0.0,0.0
2026-05-25 08:38:20.264616,1779712700.264616,1607627,-1740864,163919440,92344,26617,161111,61,0caefe00,0.0,0.0,0.0,0.0,0.0,0.0
2026-05-25 08:38:20.265864,1779712700.265864,1607627,-1740864,163919440,92344,26617,161111,61,0caefe00,0.0,0.0,0.0,0.0,0.0,0.0
2026-05-25 08:38:20.274560,1779712700.274560,1610274,-1847257,163921480,57512,-96156,117218,61,0caefe00,0.0,0.0,0.0,0.0,0.0,0.0
2026-05-25 08:38:20.275789,1779712700.275789,1610274,-1847257,163921480,57512,-96156,117218,61,0caefe00,0.0,0.0,0.0,0.0,0.0,0.0
2026-05-25 08:38:20.284084,1779712700.284084,1880498,-1988460,164043608,37267,-191054,42995,61,0caefe00,0.0,0.0,0.0,0.0,0.0,0.0
2026-05-25 08:38:20.285012,1779712700.285012,1880498,-1988460,164043608,37267,-191054,42995,61,0caefe00,0.0,0.0,0.0,0.0,0.0,0.0
2026-05-25 08:38:20.293950,1779712700.293950,2311113,-2067353,164250506,14948,-244277,8687,61,0caefe00,0.0,0.0,0.0,0.0,0.0,0.0
2026-05-25 08:38:20.294863,1779712700.294863,2311113,-2067353,164250506,14948,-244277,8687,61,0caefe00,0.0,0.0,0.0,0.0,0.0,0.0
2026-05-25 08:38:20.304048,1779712700.304048,2565144,-2053430,164482633,470,-205470,47940,61,0caefe00,0.0,0.0,0.0,0.0,0.0,0.0
2026-05-25 08:38:20.305042,1779712700.305042,2565144,-2053430,164482633,470,-205470,47940,61,0caefe00,0.0,0.0,0.0,0.0,0.0,0.0
2026-05-25 08:38:20.314286,1779712700.314286,2604680,-1891367,164597920,10251,-109161,106185,61,0caefe00,0.0,0.0,0.0,0.0,0.0,0.0
2026-05-25 08:38:20.315492,1779712700.315492,2604680,-1891367,164597920,10251,-109161,106185,61,0caefe00,0.0,0.0,0.0,0.0,0.0,0.0
2026-05-25 08:38:20.324023,1779712700.324023,2476830,-1569065,164552322,54666,-5072,145649,61,0caefe00,0.0,0.0,0.0,0.0,0.0,0.0
2026-05-25 08:38:20.324716,1779712700.324716,2476830,-1569065,164552322,54666,-5072,145649,61,0caefe00,0.0,0.0,0.0,0.0,0.0,0.0
2026-05-25 08:38:20.333872,1779712700.333872,2304608,-1339598,164341201,99270,58497,129400,61,0cadfe00,0.0,0.0,0.0,0.0,0.0,0.0
2026-05-25 08:38:20.334457,1779712700.334457,2304608,-1339598,164341201,99270,58497,129400,61,0cadfe00,0.0,0.0,0.0,0.0,0.0,0.0
2026-05-25 08:38:20.343936,1779712700.343936,2222054,-1243950,164184814,75817,46946,77827,61,0cadfe00,0.0,0.0,0.0,0.0,0.0,0.0
2026-05-25 08:38:20.344529,1779712700.344529,2222054,-1243950,164184814,75817,46946,77827,61,0cadfe00,0.0,0.0,0.0,0.0,0.0,0.0
2026-05-25 08:38:20.354035,1779712700.354035,2160604,-1391120,164109724,23671,33942,51359,61,0cadfe00,0.0,0.0,0.0,0.0,0.0,0.0
2026-05-25 08:38:20.354697,1779712700.354697,2160604,-1391120,164109724,23671,33942,51359,61,0cadfe00,0.0,0.0,0.0,0.0,0.0,0.0
2026-05-25 08:38:20.363679,1779712700.363679,2139032,-1651886,164146595,-24250,-12552,69113,61,0cadfe00,0.0,0.0,0.0,0.0,0.0,0.0
2026-05-25 08:38:20.364325,1779712700.364325,2139032,-1651886,164146595,-24250,-12552,69113,61,0cadfe00,0.0,0.0,0.0,0.0,0.0,0.0
2026-05-25 08:38:20.373747,1779712700.373747,2022982,-1883107,164111414,-39674,-53651,111001,61,0cadfe00,0.0,0.0,0.0,0.0,0.0,0.0
2026-05-25 08:38:20.374404,1779712700.374404,2022982,-1883107,164111414,-39674,-53651,111001,61,0cadfe00,0.0,0.0,0.0,0.0,0.0,0.0
2026-05-25 08:38:20.383845,1779712700.383845,1894621,-1997641,164091645,-64414,-137990,136216,61,0cadfe00,0.0,0.0,0.0,0.0,0.0,0.0
2026-05-25 08:38:20.384452,1779712700.384452,1894621,-1997641,164091645,-64414,-137990,136216,61,0cadfe00,0.0,0.0,0.0,0.0,0.0,0.0
2026-05-25 08:38:20.393940,1779712700.393940,1844396,-1979075,164128209,-46995,-196440,122589,61,0cadfe00,0.0,0.0,0.0,0.0,0.0,0.0
2026-05-25 08:38:20.394548,1779712700.394548,1844396,-1979075,164128209,-46995,-196440,122589,61,0cadfe00,0.0,0.0,0.0,0.0,0.0,0.0
2026-05-25 08:38:20.405408,1779712700.405408,2003225,-1906252,164233668,-18115,-274501,74269,61,0cadfe00,0.0,0.0,0.0,0.0,0.0,0.0
2026-05-25 08:38:20.406265,1779712700.406265,2003225,-1906252,164233668,-18115,-274501,74269,61,0cadfe00,0.0,0.0,0.0,0.0,0.0,0.0
2026-05-25 08:38:20.415273,1779712700.415273,2367075,-1837018,164493847,60822,-269388,26688,61,0cadfe00,0.0,0.0,0.0,0.0,0.0,0.0
2026-05-25 08:38:20.416979,1779712700.416979,2367075,-1837018,164493847,60822,-269388,26688,61,0cadfe00,0.0,0.0,0.0,0.0,0.0,0.0
2026-05-25 08:38:20.423883,1779712700.423883,2765581,-1773968,164653564,129399,-183611,43753,61,0cadfe00,0.0,0.0,0.0,0.0,0.0,0.0
2026-05-25 08:38:20.424734,1779712700.424734,2765581,-1773968,164653564,129399,-183611,43753,61,0cadfe00,0.0,0.0,0.0,0.0,0.0,0.0
2026-05-25 08:38:20.435831,1779712700.435831,2979448,-1730301,164804052,200891,-12914,82536,61,0cadfe00,0.0,0.0,0.0,0.0,0.0,0.0
2026-05-25 08:38:20.438179,1779712700.438179,2979448,-1730301,164804052,200891,-12914,82536,61,0cadfe00,0.0,0.0,0.0,0.0,0.0,0.0
2026-05-25 08:38:20.444682,1779712700.444682,2897082,-1670073,164699751,275329,168173,137008,61,0cadfe00,0.0,0.0,0.0,0.0,0.0,0.0
2026-05-25 08:38:20.446488,1779712700.446488,2897082,-1670073,164699751,275329,168173,137008,61,0cadfe00,0.0,0.0,0.0,0.0,0.0,0.0
2026-05-25 08:38:20.454692,1779712700.454692,2573747,-1620337,164456747,328604,295004,138054,61,0cacfe00,0.0,0.0,0.0,0.0,0.0,0.0
2026-05-25 08:38:20.455766,1779712700.455766,2573747,-1620337,164456747,328604,295004,138054,61,0cacfe00,0.0,0.0,0.0,0.0,0.0,0.0
2026-05-25 08:38:20.463652,1779712700.463652,2146778,-1593249,164169601,356346,318918,114251,61,0cadfe00,0.0,0.0,0.0,0.0,0.0,0.0
2026-05-25 08:38:20.464279,1779712700.464279,2146778,-1593249,164169601,356346,318918,114251,61,0cadfe00,0.0,0.0,0.0,0.0,0.0,0.0
2026-05-25 08:38:20.474136,1779712700.474136,1836258,-1673097,163983725,348334,248080,79484,61,0cadfe00,0.0,0.0,0.0,0.0,0.0,0.0
2026-05-25 08:38:20.475103,1779712700.475103,1836258,-1673097,163983725,348334,248080,79484,61,0cadfe00,0.0,0.0,0.0,0.0,0.0,0.0
2026-05-25 08:38:20.484178,1779712700.484178,1734332,-1849010,163999484,339418,157450,52523,61,0cacfe00,0.0,0.0,0.0,0.0,0.0,0.0
2026-05-25 08:38:20.485319,1779712700.485319,1734332,-1849010,163999484,339418,157450,52523,61,0cacfe00,0.0,0.0,0.0,0.0,0.0,0.0
2026-05-25 08:38:20.494164,1779712700.494164,1863230,-1987614,164129104,364761,69553,51586,61,0cadfe00,0.0,0.0,0.0,0.0,0.0,0.0
2026-05-25 08:38:20.495354,1779712700.495354,1863230,-1987614,164129104,364761,69553,51586,61,0cadfe00,0.0,0.0,0.0,0.0,0.0,0.0
2026-05-25 08:38:20.504087,1779712700.504087,2104337,-2023662,164299459,419045,39358,76157,61,0cacfe00,0.0,0.0,0.0,0.0,0.0,0.0
2026-05-25 08:38:20.505044,1779712700.505044,2104337,-2023662,164299459,419045,39358,76157,61,0cacfe00,0.0,0.0,0.0,0.0,0.0,0.0
2026-05-25 08:38:20.514178,1779712700.514178,2379539,-1870619,164472047,456768,64102,78600,61,0cacfe00,0.0,0.0,0.0,0.0,0.0,0.0
2026-05-25 08:38:20.515582,1779712700.515582,2379539,-1870619,164472047,456768,64102,78600,61,0cacfe00,0.0,0.0,0.0,0.0,0.0,0.0
2026-05-25 08:38:20.524094,1779712700.524094,2622891,-1695909,164568987,477619,148719,87683,61,0cacfe00,0.0,0.0,0.0,0.0,0.0,0.0
2026-05-25 08:38:20.525220,1779712700.525220,2622891,-1695909,164568987,477619,148719,87683,61,0cacfe00,0.0,0.0,0.0,0.0,0.0,0.0
2026-05-25 08:38:20.534304,1779712700.534304,2872491,-1651139,164756346,547134,258894,68947,61,0cacfe00,0.0,0.0,0.0,0.0,0.0,0.0
2026-05-25 08:38:20.535693,1779712700.535693,2872491,-1651139,164756346,547134,258894,68947,61,0cacfe00,0.0,0.0,0.0,0.0,0.0,0.0
2026-05-25 08:38:20.544392,1779712700.544392,3007041,-1675806,164805538,615270,430066,51758,61,0cacfe00,0.0,0.0,0.0,0.0,0.0,0.0
2026-05-25 08:38:20.545716,1779712700.545716,3007041,-1675806,164805538,615270,430066,51758,61,0cacfe00,0.0,0.0,0.0,0.0,0.0,0.0
2026-05-25 08:38:20.553801,1779712700.553801,3036548,-1835061,164796504,669698,573377,74898,61,0cacfe00,0.0,0.0,0.0,0.0,0.0,0.0
2026-05-25 08:38:20.554483,1779712700.554483,3036548,-1835061,164796504,669698,573377,74898,61,0cacfe00,0.0,0.0,0.0,0.0,0.0,0.0
2026-05-25 08:38:20.563893,1779712700.563893,2839015,-2073977,164927249,779396,739651,109980,61,0cacfe00,0.0,0.0,0.0,0.0,0.0,0.0
2026-05-25 08:38:20.564596,1779712700.564596,2839015,-2073977,164927249,779396,739651,109980,61,0cacfe00,0.0,0.0,0.0,0.0,0.0,0.0
2026-05-25 08:38:20.573869,1779712700.573869,2550981,-2292305,164883350,988856,892852,114140,61,0cacfe00,0.0,0.0,0.0,0.0,0.0,0.0
2026-05-25 08:38:20.574514,1779712700.574514,2550981,-2292305,164883350,988856,892852,114140,61,0cacfe00,0.0,0.0,0.0,0.0,0.0,0.0
2026-05-25 08:38:20.583940,1779712700.583940,2366060,-2328622,164809839,1214473,1037571,117151,61,0cacfe00,0.0,0.0,0.0,0.0,0.0,0.0
2026-05-25 08:38:20.584963,1779712700.584963,2366060,-2328622,164809839,1214473,1037571,117151,61,0cacfe00,0.0,0.0,0.0,0.0,0.0,0.0
2026-05-25 08:38:20.600039,1779712700.600039,2156293,-1845738,163416897,1065677,1075221,115544,61,0cacfe00,0.0,0.0,0.0,0.0,0.0,0.0
2026-05-25 08:38:20.603386,1779712700.603386,2156293,-1845738,163416897,1065677,1075221,115544,61,0cacfe00,0.0,0.0,0.0,0.0,0.0,0.0
2026-05-25 08:38:20.603908,1779712700.603908,1557782,-1503030,163267535,649870,829315,60776,61,0cacfe00,0.0,0.0,0.0,0.0,0.0,0.0
2026-05-25 08:38:20.605616,1779712700.605616,1557782,-1503030,163267535,649870,829315,60776,61,0cacfe00,0.0,0.0,0.0,0.0,0.0,0.0
2026-05-25 08:38:20.616306,1779712700.616306,638097,-940438,162883818,278646,567853,72054,61,0cacfe00,0.0,0.0,0.0,0.0,0.0,0.0
2026-05-25 08:38:20.616983,1779712700.616983,638097,-940438,162883818,278646,567853,72054,61,0cacfe00,0.0,0.0,0.0,0.0,0.0,0.0
2026-05-25 08:38:20.677662,1779712700.677662,268813,-780532,163287826,163029,86597,39021,61,0cacfe00,0.0,0.0,0.0,0.0,0.0,0.0
2026-05-25 08:38:20.679141,1779712700.679141,268813,-780532,163287826,163029,86597,39021,61,0cacfe00,0.0,0.0,0.0,0.0,0.0,0.0
2026-05-25 08:38:20.679915,1779712700.679915,603410,-629576,163525131,142852,-199046,67941,61,0cacfe00,0.0,0.0,0.0,0.0,0.0,0.0
2026-05-25 08:38:20.680608,1779712700.680608,603410,-629576,163525131,142852,-199046,67941,61,0cacfe00,0.0,0.0,0.0,0.0,0.0,0.0
2026-05-25 08:38:20.681521,1779712700.681521,1678005,-914273,163206153,-118768,-564816,62088,61,0cabfe00,0.0,0.0,0.0,0.0,0.0,0.0
2026-05-25 08:38:20.682204,1779712700.682204,1678005,-914273,163206153,-118768,-564816,62088,61,0cabfe00,0.0,0.0,0.0,0.0,0.0,0.0
2026-05-25 08:38:20.682719,1779712700.682719,2371049,-1416369,164497945,-288463,-705587,64092,61,0cacfe00,0.0,0.0,0.0,0.0,0.0,0.0
2026-05-25 08:38:20.683390,1779712700.683390,2371049,-1416369,164497945,-288463,-705587,64092,61,0cacfe00,0.0,0.0,0.0,0.0,0.0,0.0
2026-05-25 08:38:20.684469,1779712700.684469,3024932,-2093106,164916733,-231032,-508741,110872,61,0cacfe00,0.0,0.0,0.0,0.0,0.0,0.0
2026-05-25 08:38:20.685240,1779712700.685240,3024932,-2093106,164916733,-231032,-508741,110872,61,0cacfe00,0.0,0.0,0.0,0.0,0.0,0.0
2026-05-25 08:38:20.685790,1779712700.685790,3273382,-2337830,165253692,-7557,-273892,84122,61,0cacfe00,0.0,0.0,0.0,0.0,0.0,0.0
2026-05-25 08:38:20.686499,1779712700.686499,3273382,-2337830,165253692,-7557,-273892,84122,61,0cacfe00,0.0,0.0,0.0,0.0,0.0,0.0
2026-05-25 08:38:20.687420,1779712700.687420,3412973,-2557225,165062333,102242,84901,134728,61,0cacfe00,0.0,0.0,0.0,0.0,0.0,0.0
2026-05-25 08:38:20.688045,1779712700.688045,3412973,-2557225,165062333,102242,84901,134728,61,0cacfe00,0.0,0.0,0.0,0.0,0.0,0.0
2026-05-25 08:38:20.693920,1779712700.693920,2798514,-2255986,164486118,88613,235227,113227,61,0cabfe00,0.0,0.0,0.0,0.0,0.0,0.0
2026-05-25 08:38:20.694594,1779712700.694594,2798514,-2255986,164486118,88613,235227,113227,61,0cabfe00,0.0,0.0,0.0,0.0,0.0,0.0
2026-05-25 08:38:20.703651,1779712700.703651,1976668,-2144094,164559613,124990,314144,123455,61,0cabfe00,0.0,0.0,0.0,0.0,0.0,0.0
2026-05-25 08:38:20.704286,1779712700.704286,1976668,-2144094,164559613,124990,314144,123455,61,0cabfe00,0.0,0.0,0.0,0.0,0.0,0.0
2026-05-25 08:38:20.713732,1779712700.713732,1277179,-1544698,163865732,186837,284884,123321,61,0cabfe00,0.0,0.0,0.0,0.0,0.0,0.0
2026-05-25 08:38:20.714419,1779712700.714419,1277179,-1544698,163865732,186837,284884,123321,61,0cabfe00,0.0,0.0,0.0,0.0,0.0,0.0
2026-05-25 08:38:20.723724,1779712700.723724,1095710,-1230640,163629128,109178,3690,72673,61,0cabfe00,0.0,0.0,0.0,0.0,0.0,0.0
2026-05-25 08:38:20.724349,1779712700.724349,1095710,-1230640,163629128,109178,3690,72673,61,0cabfe00,0.0,0.0,0.0,0.0,0.0,0.0
2026-05-25 08:38:20.734155,1779712700.734155,1332308,-977895,163634289,-59828,-209568,68392,61,0cabfe00,0.0,0.0,0.0,0.0,0.0,0.0
2026-05-25 08:38:20.735115,1779712700.735115,1332308,-977895,163634289,-59828,-209568,68392,61,0cabfe00,0.0,0.0,0.0,0.0,0.0,0.0
2026-05-25 08:38:20.743956,1779712700.743956,1741949,-1149714,164056788,-166502,-466427,40349,61,0cabfe00,0.0,0.0,0.0,0.0,0.0,0.0
2026-05-25 08:38:20.744777,1779712700.744777,1741949,-1149714,164056788,-166502,-466427,40349,61,0cabfe00,0.0,0.0,0.0,0.0,0.0,0.0
2026-05-25 08:38:20.754344,1779712700.754344,2360321,-1401446,164711950,-120205,-402311,62566,61,0cabfe00,0.0,0.0,0.0,0.0,0.0,0.0
2026-05-25 08:38:20.755504,1779712700.755504,2360321,-1401446,164711950,-120205,-402311,62566,61,0cabfe00,0.0,0.0,0.0,0.0,0.0,0.0
2026-05-25 08:38:20.764354,1779712700.764354,2805797,-1670273,164607957,-68105,-347393,91691,61,0cabfe00,0.0,0.0,0.0,0.0,0.0,0.0
2026-05-25 08:38:20.765709,1779712700.765709,2805797,-1670273,164607957,-68105,-347393,91691,61,0cabfe00,0.0,0.0,0.0,0.0,0.0,0.0
2026-05-25 08:38:20.774455,1779712700.774455,2942155,-1923211,164785185,-73984,-185742,151668,61,0cabfe00,0.0,0.0,0.0,0.0,0.0,0.0
2026-05-25 08:38:20.775963,1779712700.775963,2942155,-1923211,164785185,-73984,-185742,151668,61,0cabfe00,0.0,0.0,0.0,0.0,0.0,0.0
2026-05-25 08:38:20.784137,1779712700.784137,2625465,-2087988,164720116,-24443,-60431,154716,61,0cabfe00,0.0,0.0,0.0,0.0,0.0,0.0
2026-05-25 08:38:20.785154,1779712700.785154,2625465,-2087988,164720116,-24443,-60431,154716,61,0cabfe00,0.0,0.0,0.0,0.0,0.0,0.0
2026-05-25 08:38:20.794333,1779712700.794333,2288094,-2161220,164623582,73483,20386,106150,61,0cabfe00,0.0,0.0,0.0,0.0,0.0,0.0
2026-05-25 08:38:20.795531,1779712700.795531,2288094,-2161220,164623582,73483,20386,106150,61,0cabfe00,0.0,0.0,0.0,0.0,0.0,0.0
2026-05-25 08:38:20.803789,1779712700.803789,2055443,-2071272,164427340,165205,72959,86412,61,0cabfe00,0.0,0.0,0.0,0.0,0.0,0.0
2026-05-25 08:38:20.804504,1779712700.804504,2055443,-2071272,164427340,165205,72959,86412,61,0cabfe00,0.0,0.0,0.0,0.0,0.0,0.0
2026-05-25 08:38:20.813881,1779712700.813881,2043390,-1891513,164061895,130277,37108,79440,61,0cabfe00,0.0,0.0,0.0,0.0,0.0,0.0
2026-05-25 08:38:20.814580,1779712700.814580,2043390,-1891513,164061895,130277,37108,79440,61,0cabfe00,0.0,0.0,0.0,0.0,0.0,0.0
2026-05-25 08:38:20.824025,1779712700.824025,2008648,-1657574,164290319,89438,-2661,106417,61,0cabfe00,0.0,0.0,0.0,0.0,0.0,0.0
2026-05-25 08:38:20.824934,1779712700.824934,2008648,-1657574,164290319,89438,-2661,106417,61,0cabfe00,0.0,0.0,0.0,0.0,0.0,0.0
2026-05-25 08:38:20.834951,1779712700.834951,2036607,-1401528,164235517,67659,-16213,104622,61,0cabfe00,0.0,0.0,0.0,0.0,0.0,0.0
2026-05-25 08:38:20.837459,1779712700.837459,2036607,-1401528,164235517,67659,-16213,104622,61,0cabfe00,0.0,0.0,0.0,0.0,0.0,0.0
2026-05-25 08:38:20.844280,1779712700.844280,2103092,-1209565,164309914,76335,-18767,105288,61,0caafe00,0.0,0.0,0.0,0.0,0.0,0.0
2026-05-25 08:38:20.845362,1779712700.845362,2103092,-1209565,164309914,76335,-18767,105288,61,0caafe00,0.0,0.0,0.0,0.0,0.0,0.0
2026-05-25 08:38:20.854281,1779712700.854281,2260343,-1271003,164286098,34468,-14512,93052,61,0caafe00,0.0,0.0,0.0,0.0,0.0,0.0
2026-05-25 08:38:20.855496,1779712700.855496,2260343,-1271003,164286098,34468,-14512,93052,61,0caafe00,0.0,0.0,0.0,0.0,0.0,0.0
2026-05-25 08:38:20.864894,1779712700.864894,2302651,-1448364,164305947,-9354,-68551,65539,61,0caafe00,0.0,0.0,0.0,0.0,0.0,0.0
2026-05-25 08:38:20.865965,1779712700.865965,2302651,-1448364,164305947,-9354,-68551,65539,61,0caafe00,0.0,0.0,0.0,0.0,0.0,0.0
2026-05-25 08:38:20.874222,1779712700.874222,2315919,-1878573,164536075,18915,-60502,78769,61,0caafe00,0.0,0.0,0.0,0.0,0.0,0.0
2026-05-25 08:38:20.875306,1779712700.875306,2315919,-1878573,164536075,18915,-60502,78769,61,0caafe00,0.0,0.0,0.0,0.0,0.0,0.0
2026-05-25 08:38:20.883716,1779712700.883716,2228805,-2111704,164410041,70268,-1474,78589,61,0cabfe00,0.0,0.0,0.0,0.0,0.0,0.0
2026-05-25 08:38:20.884447,1779712700.884447,2228805,-2111704,164410041,70268,-1474,78589,61,0cabfe00,0.0,0.0,0.0,0.0,0.0,0.0
2026-05-25 08:38:20.893889,1779712700.893889,2195975,-2258438,164439132,150336,35055,96116,61,0cabfe00,0.0,0.0,0.0,0.0,0.0,0.0
2026-05-25 08:38:20.894821,1779712700.894821,2195975,-2258438,164439132,150336,35055,96116,61,0cabfe00,0.0,0.0,0.0,0.0,0.0,0.0
2026-05-25 08:38:20.903960,1779712700.903960,2174359,-2136693,164255290,151461,73692,92061,61,0cabfe00,0.0,0.0,0.0,0.0,0.0,0.0
2026-05-25 08:38:20.904927,1779712700.904927,2174359,-2136693,164255290,151461,73692,92061,61,0cabfe00,0.0,0.0,0.0,0.0,0.0,0.0
2026-05-25 08:38:20.914036,1779712700.914036,2109362,-1941315,164298078,158240,60378,86841,61,0cabfe00,0.0,0.0,0.0,0.0,0.0,0.0
2026-05-25 08:38:20.914922,1779712700.914922,2109362,-1941315,164298078,158240,60378,86841,61,0cabfe00,0.0,0.0,0.0,0.0,0.0,0.0
2026-05-25 08:38:20.924168,1779712700.924168,2149651,-1655417,164310805,171452,94297,87276,61,0caafe00,0.0,0.0,0.0,0.0,0.0,0.0
2026-05-25 08:38:20.925202,1779712700.925202,2149651,-1655417,164310805,171452,94297,87276,61,0caafe00,0.0,0.0,0.0,0.0,0.0,0.0
2026-05-25 08:38:20.934714,1779712700.934714,2159567,-1463785,164231266,140310,61315,73033,61,0caafe00,0.0,0.0,0.0,0.0,0.0,0.0
2026-05-25 08:38:20.938219,1779712700.938219,2159567,-1463785,164231266,140310,61315,73033,61,0caafe00,0.0,0.0,0.0,0.0,0.0,0.0
2026-05-25 08:38:20.944718,1779712700.944718,2174968,-1333837,164288401,95351,21884,58189,61,0caafe00,0.0,0.0,0.0,0.0,0.0,0.0
2026-05-25 08:38:20.945640,1779712700.945640,2174968,-1333837,164288401,95351,21884,58189,61,0caafe00,0.0,0.0,0.0,0.0,0.0,0.0
2026-05-25 08:38:20.954021,1779712700.954021,2038426,-1401215,164188638,37165,1790,77540,61,0caafe00,0.0,0.0,0.0,0.0,0.0,0.0
2026-05-25 08:38:20.954868,1779712700.954868,2038426,-1401215,164188638,37165,1790,77540,61,0caafe00,0.0,0.0,0.0,0.0,0.0,0.0
2026-05-25 08:38:20.964113,1779712700.964113,1859171,-1516705,164291070,12085,-25100,79598,61,0caafe00,0.0,0.0,0.0,0.0,0.0,0.0
2026-05-25 08:38:20.965081,1779712700.965081,1859171,-1516705,164291070,12085,-25100,79598,61,0caafe00,0.0,0.0,0.0,0.0,0.0,0.0
2026-05-25 08:38:20.974059,1779712700.974059,1775971,-1687297,164139691,1732,-55055,101860,61,0caafe00,0.0,0.0,0.0,0.0,0.0,0.0
2026-05-25 08:38:20.975036,1779712700.975036,1775971,-1687297,164139691,1732,-55055,101860,61,0caafe00,0.0,0.0,0.0,0.0,0.0,0.0
2026-05-25 08:38:20.983912,1779712700.983912,1798175,-1808851,164132031,-21966,-150163,82540,61,0caafe00,0.0,0.0,0.0,0.0,0.0,0.0
2026-05-25 08:38:20.984882,1779712700.984882,1798175,-1808851,164132031,-21966,-150163,82540,61,0caafe00,0.0,0.0,0.0,0.0,0.0,0.0
2026-05-25 08:38:20.994246,1779712700.994246,1922535,-1965107,164209480,-39660,-187122,65774,61,0caafe00,0.0,0.0,0.0,0.0,0.0,0.0
2026-05-25 08:38:20.995191,1779712700.995191,1922535,-1965107,164209480,-39660,-187122,65774,61,0caafe00,0.0,0.0,0.0,0.0,0.0,0.0
2026-05-25 08:38:21.003946,1779712701.003946,2094171,-1985126,164313428,-20911,-208676,55667,61,0caafe00,0.0,0.0,0.0,0.0,0.0,0.0
2026-05-25 08:38:21.004983,1779712701.004983,2094171,-1985126,164313428,-20911,-208676,55667,61,0caafe00,0.0,0.0,0.0,0.0,0.0,0.0
2026-05-25 08:38:21.014533,1779712701.014533,2279880,-1915540,164428831,23790,-183751,81639,61,0caafe00,0.0,0.0,0.0,0.0,0.0,0.0
2026-05-25 08:38:21.016436,1779712701.016436,2279880,-1915540,164428831,23790,-183751,81639,61,0caafe00,0.0,0.0,0.0,0.0,0.0,0.0
2026-05-25 08:38:21.024032,1779712701.024032,2385783,-1732375,164372244,31721,-145666,112511,61,0caafe00,0.0,0.0,0.0,0.0,0.0,0.0
2026-05-25 08:38:21.025095,1779712701.025095,2385783,-1732375,164372244,31721,-145666,112511,61,0caafe00,0.0,0.0,0.0,0.0,0.0,0.0
2026-05-25 08:38:21.033985,1779712701.033985,2393453,-1570920,164416377,16442,-132640,127110,61,0caafe00,0.0,0.0,0.0,0.0,0.0,0.0
2026-05-25 08:38:21.034973,1779712701.034973,2393453,-1570920,164416377,16442,-132640,127110,61,0caafe00,0.0,0.0,0.0,0.0,0.0,0.0
2026-05-25 08:38:21.043948,1779712701.043948,2291222,-1468874,164394399,-8136,-114555,98854,61,0caafe00,0.0,0.0,0.0,0.0,0.0,0.0
2026-05-25 08:38:21.044836,1779712701.044836,2291222,-1468874,164394399,-8136,-114555,98854,61,0caafe00,0.0,0.0,0.0,0.0,0.0,0.0
