sys_datetime,unix_timestamp,raw_accel_x_lsb,raw_accel_y_lsb,raw_accel_z_lsb,raw_gyro_x_lsb,raw_gyro_y_lsb,raw_gyro_z_lsb,imu_type,imu_status_hex,veh_lat_acc_ms2,veh_long_acc_ms2,veh_vert_acc_ms2,veh_pitch_rate_degs,veh_roll_rate_degs,veh_yaw_rate_degs
2026-05-25 09:41:29.940413,1779716489.940413,1385895,-139105,164289364,-1148,-79152,-9529,61,efd3fe00,,,,,,
2026-05-25 09:41:29.951453,1779716489.951453,1385895,-139105,164289364,-1148,-79152,-9529,61,efd3fe00,0.0,0.0,0.0,0.0,0.0,0.0
2026-05-25 09:41:29.960425,1779716489.960425,1492210,-111347,164217461,21482,32975,-9621,61,efd3fe00,0.0,0.0,0.0,0.0,0.0,0.0
2026-05-25 09:41:29.972376,1779716489.972376,1492210,-111347,164217461,21482,32975,-9621,61,efd3fe00,0.0,0.0,0.0,0.0,0.0,0.0
2026-05-25 09:41:29.981819,1779716489.981819,1448008,-229378,164339479,53277,107635,6921,61,efd3fe00,0.0,0.0,0.0,0.0,0.0,0.0
2026-05-25 09:41:29.993261,1779716489.993261,1448008,-229378,164339479,53277,107635,6921,61,efd3fe00,0.0,0.0,0.0,0.0,0.0,0.0
2026-05-25 09:41:30.001536,1779716490.001536,1247680,-390705,164404349,98612,90689,3121,61,efd3fe00,0.0,0.0,0.0,0.0,0.0,0.0
2026-05-25 09:41:30.010370,1779716490.010370,1247680,-390705,164404349,98612,90689,3121,61,efd3fe00,0.0,0.0,0.0,0.0,0.0,0.0
2026-05-25 09:41:30.017896,1779716490.017896,995288,-579085,164481966,123406,64697,7336,61,efd3fe00,0.0,0.0,0.0,0.0,0.0,0.0
2026-05-25 09:41:30.026788,1779716490.026788,995288,-579085,164481966,123406,64697,7336,61,efd3fe00,0.0,0.0,0.0,0.0,0.0,0.0
2026-05-25 09:41:30.033870,1779716490.033870,782591,-623392,164391038,109298,9121,-31633,61,efd3fe00,0.0,0.0,0.0,0.0,0.0,0.0
2026-05-25 09:41:30.044034,1779716490.044034,782591,-623392,164391038,109298,9121,-31633,61,efd3fe00,0.0,0.0,0.0,0.0,0.0,0.0
2026-05-25 09:41:30.052141,1779716490.052141,844699,-734085,164325616,32285,-16350,-52680,61,efd3fe00,0.0,0.0,0.0,0.0,0.0,0.0
2026-05-25 09:41:30.069963,1779716490.069963,844699,-734085,164325616,32285,-16350,-52680,61,efd3fe00,0.0,0.0,0.0,0.0,0.0,0.0
2026-05-25 09:41:30.083472,1779716490.083472,1085641,-787344,164295453,1444,2420,-73017,61,efd3fe00,0.0,0.0,0.0,0.0,0.0,0.0
2026-05-25 09:41:30.094805,1779716490.094805,1085641,-787344,164295453,1444,2420,-73017,61,efd3fe00,0.0,0.0,0.0,0.0,0.0,0.0
2026-05-25 09:41:30.101953,1779716490.101953,1387117,-756685,164258873,-12485,4559,-66271,61,efd3fe00,0.0,0.0,0.0,0.0,0.0,0.0
2026-05-25 09:41:30.111035,1779716490.111035,1387117,-756685,164258873,-12485,4559,-66271,61,efd3fe00,0.0,0.0,0.0,0.0,0.0,0.0
2026-05-25 09:41:30.118400,1779716490.118400,1640554,-604577,164270625,46282,84260,-26296,61,efd3fe00,0.0,0.0,0.0,0.0,0.0,0.0
2026-05-25 09:41:30.127574,1779716490.127574,1640554,-604577,164270625,46282,84260,-26296,61,efd3fe00,0.0,0.0,0.0,0.0,0.0,0.0
2026-05-25 09:41:30.134751,1779716490.134751,1558576,-350374,164240716,131729,180346,10414,61,efd3fe00,0.0,0.0,0.0,0.0,0.0,0.0
2026-05-25 09:41:30.142903,1779716490.142903,1558576,-350374,164240716,131729,180346,10414,61,efd3fe00,0.0,0.0,0.0,0.0,0.0,0.0
2026-05-25 09:41:30.157363,1779716490.157363,1264011,-172448,164347307,154241,231928,23959,61,efd3fe00,0.0,0.0,0.0,0.0,0.0,0.0
2026-05-25 09:41:30.167458,1779716490.167458,1264011,-172448,164347307,154241,231928,23959,61,efd3fe00,0.0,0.0,0.0,0.0,0.0,0.0
2026-05-25 09:41:30.179806,1779716490.179806,913776,-99112,164488060,149481,229961,25319,61,efd3fe00,0.0,0.0,0.0,0.0,0.0,0.0
2026-05-25 09:41:30.191345,1779716490.191345,913776,-99112,164488060,149481,229961,25319,61,efd3fe00,0.0,0.0,0.0,0.0,0.0,0.0
2026-05-25 09:41:30.198832,1779716490.198832,684549,-88382,164590989,58771,134437,6691,61,efd3fe00,0.0,0.0,0.0,0.0,0.0,0.0
2026-05-25 09:41:30.207753,1779716490.207753,684549,-88382,164590989,58771,134437,6691,61,efd3fe00,0.0,0.0,0.0,0.0,0.0,0.0
2026-05-25 09:41:30.215124,1779716490.215124,771567,-128769,164583696,16780,33061,-12171,61,efd3fe00,0.0,0.0,0.0,0.0,0.0,0.0
2026-05-25 09:41:30.224028,1779716490.224028,771567,-128769,164583696,16780,33061,-12171,61,efd3fe00,0.0,0.0,0.0,0.0,0.0,0.0
2026-05-25 09:41:30.231449,1779716490.231449,952635,-162503,164471453,-36089,-30205,-33080,61,efd3fe00,0.0,0.0,0.0,0.0,0.0,0.0
2026-05-25 09:41:30.241818,1779716490.241818,952635,-162503,164471453,-36089,-30205,-33080,61,efd3fe00,0.0,0.0,0.0,0.0,0.0,0.0
2026-05-25 09:41:30.250114,1779716490.250114,1199749,-361627,164413674,-20411,-57662,-27650,61,efd3fe00,0.0,0.0,0.0,0.0,0.0,0.0
2026-05-25 09:41:30.258809,1779716490.258809,1199749,-361627,164413674,-20411,-57662,-27650,61,efd3fe00,0.0,0.0,0.0,0.0,0.0,0.0
2026-05-25 09:41:30.265671,1779716490.265671,1337118,-545279,164345468,2641,-46035,-14820,61,efd3fe00,0.0,0.0,0.0,0.0,0.0,0.0
2026-05-25 09:41:30.282760,1779716490.282760,1337118,-545279,164345468,2641,-46035,-14820,61,efd3fe00,0.0,0.0,0.0,0.0,0.0,0.0
2026-05-25 09:41:30.298562,1779716490.298562,1323834,-714447,164326176,47342,-10250,7151,61,efd3fe00,0.0,0.0,0.0,0.0,0.0,0.0
2026-05-25 09:41:30.317830,1779716490.317830,1323834,-714447,164326176,47342,-10250,7151,61,efd3fe00,0.0,0.0,0.0,0.0,0.0,0.0
2026-05-25 09:41:30.327947,1779716490.327947,1235859,-748078,164266689,31451,10757,6889,61,efd3fe00,0.0,0.0,0.0,0.0,0.0,0.0
2026-05-25 09:41:30.337628,1779716490.337628,1235859,-748078,164266689,31451,10757,6889,61,efd3fe00,0.0,0.0,0.0,0.0,0.0,0.0
2026-05-25 09:41:30.345355,1779716490.345355,1147900,-820169,164367475,60117,36811,-3885,61,efd3fe00,0.0,0.0,0.0,0.0,0.0,0.0
2026-05-25 09:41:30.354833,1779716490.354833,1147900,-820169,164367475,60117,36811,-3885,61,efd3fe00,0.0,0.0,0.0,0.0,0.0,0.0
2026-05-25 09:41:30.369429,1779716490.369429,1077470,-741366,164275290,45218,-3480,-12721,61,efd3fe00,0.0,0.0,0.0,0.0,0.0,0.0
2026-05-25 09:41:30.387612,1779716490.387612,1077470,-741366,164275290,45218,-3480,-12721,61,efd3fe00,0.0,0.0,0.0,0.0,0.0,0.0
2026-05-25 09:41:30.402894,1779716490.402894,1211036,-731708,164439719,88155,9119,-31865,61,efd3fe00,0.0,0.0,0.0,0.0,0.0,0.0
2026-05-25 09:41:30.421044,1779716490.421044,1211036,-731708,164439719,88155,9119,-31865,61,efd3fe00,0.0,0.0,0.0,0.0,0.0,0.0
2026-05-25 09:41:30.432599,1779716490.432599,1084835,-450192,164285323,104846,-2864,-14757,61,efd3fe00,0.0,0.0,0.0,0.0,0.0,0.0
2026-05-25 09:41:30.448005,1779716490.448005,1084835,-450192,164285323,104846,-2864,-14757,61,efd3fe00,0.0,0.0,0.0,0.0,0.0,0.0
2026-05-25 09:41:30.470785,1779716490.470785,1084835,-450192,164285323,104846,-2864,-14757,61,efd3fe00,0.0,0.0,0.0,0.0,0.0,0.0
2026-05-25 09:41:30.479722,1779716490.479722,1233203,-304770,164453944,103567,2153,-1042,61,efd3fe00,0.0,0.0,0.0,0.0,0.0,0.0
2026-05-25 09:41:30.489151,1779716490.489151,1147355,-167749,164376480,85276,41232,32754,61,efd3fe00,0.0,0.0,0.0,0.0,0.0,0.0
2026-05-25 09:41:30.500301,1779716490.500301,1147355,-167749,164376480,85276,41232,32754,61,efd3fe00,0.0,0.0,0.0,0.0,0.0,0.0
2026-05-25 09:41:30.510140,1779716490.510140,1279083,-97838,164510219,56920,8303,-11264,61,efd3fe00,0.0,0.0,0.0,0.0,0.0,0.0
2026-05-25 09:41:30.523458,1779716490.523458,1279083,-97838,164510219,56920,8303,-11264,61,efd3fe00,0.0,0.0,0.0,0.0,0.0,0.0
2026-05-25 09:41:30.531694,1779716490.531694,1309854,-179693,164347806,6393,2036,-33542,61,efd3fe00,0.0,0.0,0.0,0.0,0.0,0.0
2026-05-25 09:41:30.541559,1779716490.541559,1309854,-179693,164347806,6393,2036,-33542,61,efd3fe00,0.0,0.0,0.0,0.0,0.0,0.0
2026-05-25 09:41:30.548708,1779716490.548708,1425861,-263033,164364335,2461,56631,-46428,61,efd3fe00,0.0,0.0,0.0,0.0,0.0,0.0
2026-05-25 09:41:30.557941,1779716490.557941,1425861,-263033,164364335,2461,56631,-46428,61,efd3fe00,0.0,0.0,0.0,0.0,0.0,0.0
2026-05-25 09:41:30.566039,1779716490.566039,1423105,-438752,164282841,-1870,108357,-54378,61,efd3fe00,0.0,0.0,0.0,0.0,0.0,0.0
2026-05-25 09:41:30.577736,1779716490.577736,1423105,-438752,164282841,-1870,108357,-54378,61,efd3fe00,0.0,0.0,0.0,0.0,0.0,0.0
2026-05-25 09:41:30.585848,1779716490.585848,1329778,-581356,164333663,44252,189047,-21389,61,efd3fe00,0.0,0.0,0.0,0.0,0.0,0.0
2026-05-25 09:41:30.596712,1779716490.596712,1329778,-581356,164333663,44252,189047,-21389,61,efd3fe00,0.0,0.0,0.0,0.0,0.0,0.0
2026-05-25 09:41:30.605592,1779716490.605592,1158164,-707201,164400957,77482,207145,-3420,61,efd3fe00,0.0,0.0,0.0,0.0,0.0,0.0
2026-05-25 09:41:30.615911,1779716490.615911,1158164,-707201,164400957,77482,207145,-3420,61,efd3fe00,0.0,0.0,0.0,0.0,0.0,0.0
2026-05-25 09:41:30.623401,1779716490.623401,943660,-729036,164480948,80692,171065,6100,61,efd3fe00,0.0,0.0,0.0,0.0,0.0,0.0
2026-05-25 09:41:30.636910,1779716490.636910,943660,-729036,164480948,80692,171065,6100,61,efd3fe00,0.0,0.0,0.0,0.0,0.0,0.0
2026-05-25 09:41:30.646244,1779716490.646244,801898,-657854,164533929,105028,101235,-7239,61,efd3fe00,0.0,0.0,0.0,0.0,0.0,0.0
2026-05-25 09:41:30.656776,1779716490.656776,801898,-657854,164533929,105028,101235,-7239,61,efd3fe00,0.0,0.0,0.0,0.0,0.0,0.0
2026-05-25 09:41:30.671284,1779716490.671284,748617,-475854,164520519,99073,-16076,-25061,61,efd3fe00,0.0,0.0,0.0,0.0,0.0,0.0
2026-05-25 09:41:30.682073,1779716490.682073,748617,-475854,164520519,99073,-16076,-25061,61,efd3fe00,0.0,0.0,0.0,0.0,0.0,0.0
2026-05-25 09:41:30.690546,1779716490.690546,901898,-317603,164472673,97386,-102926,-50966,61,efd3fe00,0.0,0.0,0.0,0.0,0.0,0.0
2026-05-25 09:41:30.700295,1779716490.700295,901898,-317603,164472673,97386,-102926,-50966,61,efd3fe00,0.0,0.0,0.0,0.0,0.0,0.0
2026-05-25 09:41:30.708547,1779716490.708547,1123219,-129169,164417767,75606,-135521,-47398,61,efd3fe00,0.0,0.0,0.0,0.0,0.0,0.0
2026-05-25 09:41:30.719044,1779716490.719044,1123219,-129169,164417767,75606,-135521,-47398,61,efd3fe00,0.0,0.0,0.0,0.0,0.0,0.0
2026-05-25 09:41:30.729174,1779716490.729174,1298133,-94273,164394629,49403,-137901,-24169,61,efd3fe00,0.0,0.0,0.0,0.0,0.0,0.0
2026-05-25 09:41:30.738640,1779716490.738640,1298133,-94273,164394629,49403,-137901,-24169,61,efd3fe00,0.0,0.0,0.0,0.0,0.0,0.0
2026-05-25 09:41:30.747986,1779716490.747986,1356595,-128805,164347660,58011,-103551,7600,61,efd3fe00,0.0,0.0,0.0,0.0,0.0,0.0
2026-05-25 09:41:30.762151,1779716490.762151,1356595,-128805,164347660,58011,-103551,7600,61,efd3fe00,0.0,0.0,0.0,0.0,0.0,0.0
2026-05-25 09:41:30.769508,1779716490.769508,1310150,-289154,164311770,35546,-48728,6790,61,efd3fe00,0.0,0.0,0.0,0.0,0.0,0.0
2026-05-25 09:41:30.778752,1779716490.778752,1310150,-289154,164311770,35546,-48728,6790,61,efd3fe00,0.0,0.0,0.0,0.0,0.0,0.0
2026-05-25 09:41:30.787402,1779716490.787402,1237428,-479374,164266438,22623,-7805,9093,61,efd3fe00,0.0,0.0,0.0,0.0,0.0,0.0
2026-05-25 09:41:30.800845,1779716490.800845,1237428,-479374,164266438,22623,-7805,9093,61,efd3fe00,0.0,0.0,0.0,0.0,0.0,0.0
2026-05-25 09:41:30.808500,1779716490.808500,1219981,-618888,164241710,-17565,21441,-46139,61,efd3fe00,0.0,0.0,0.0,0.0,0.0,0.0
2026-05-25 09:41:30.818877,1779716490.818877,1219981,-618888,164241710,-17565,21441,-46139,61,efd3fe00,0.0,0.0,0.0,0.0,0.0,0.0
2026-05-25 09:41:30.827423,1779716490.827423,1278279,-732941,164268250,-35505,50869,-59988,61,efd3fe00,0.0,0.0,0.0,0.0,0.0,0.0
2026-05-25 09:41:30.836196,1779716490.836196,1278279,-732941,164268250,-35505,50869,-59988,61,efd3fe00,0.0,0.0,0.0,0.0,0.0,0.0
2026-05-25 09:41:30.844917,1779716490.844917,1373225,-696439,164339983,-18646,100713,-48884,61,efd3fe00,0.0,0.0,0.0,0.0,0.0,0.0
2026-05-25 09:41:30.856484,1779716490.856484,1373225,-696439,164339983,-18646,100713,-48884,61,efd3fe00,0.0,0.0,0.0,0.0,0.0,0.0
2026-05-25 09:41:30.870167,1779716490.870167,1418681,-627807,164352655,54418,169172,-13724,61,efd3fe00,0.0,0.0,0.0,0.0,0.0,0.0
2026-05-25 09:41:30.885165,1779716490.885165,1418681,-627807,164352655,54418,169172,-13724,61,efd3fe00,0.0,0.0,0.0,0.0,0.0,0.0
2026-05-25 09:41:30.896669,1779716490.896669,1305452,-476943,164438210,97951,228203,45614,61,efd3fe00,0.0,0.0,0.0,0.0,0.0,0.0
2026-05-25 09:41:30.910349,1779716490.910349,1305452,-476943,164438210,97951,228203,45614,61,efd3fe00,0.0,0.0,0.0,0.0,0.0,0.0
2026-05-25 09:41:30.921279,1779716490.921279,1077341,-378092,164458371,135168,222550,53422,61,efd3fe00,0.0,0.0,0.0,0.0,0.0,0.0
2026-05-25 09:41:30.937812,1779716490.937812,1077341,-378092,164458371,135168,222550,53422,61,efd3fe00,0.0,0.0,0.0,0.0,0.0,0.0
2026-05-25 09:41:30.946842,1779716490.946842,906219,-327353,164510715,92613,196274,51872,61,efd3fe00,0.0,0.0,0.0,0.0,0.0,0.0
2026-05-25 09:41:30.958787,1779716490.958787,906219,-327353,164510715,92613,196274,51872,61,efd3fe00,0.0,0.0,0.0,0.0,0.0,0.0
2026-05-25 09:41:30.967406,1779716490.967406,900049,-300586,164477977,77015,114415,8843,61,efd3fe00,0.0,0.0,0.0,0.0,0.0,0.0
2026-05-25 09:41:30.980730,1779716490.980730,900049,-300586,164477977,77015,114415,8843,61,efd3fe00,0.0,0.0,0.0,0.0,0.0,0.0
2026-05-25 09:41:30.987919,1779716490.987919,1032144,-294125,164490081,3143,60442,1508,61,efd3fe00,0.0,0.0,0.0,0.0,0.0,0.0
2026-05-25 09:41:30.998564,1779716490.998564,1032144,-294125,164490081,3143,60442,1508,61,efd3fe00,0.0,0.0,0.0,0.0,0.0,0.0
2026-05-25 09:41:31.008699,1779716491.008699,1243162,-325859,164459112,-14859,31666,-23093,61,efd3fe00,0.0,0.0,0.0,0.0,0.0,0.0
2026-05-25 09:41:31.027828,1779716491.027828,1243162,-325859,164459112,-14859,31666,-23093,61,efd3fe00,0.0,0.0,0.0,0.0,0.0,0.0
2026-05-25 09:41:31.042832,1779716491.042832,1329421,-321735,164414078,-27278,61989,-15069,61,efd3fe00,0.0,0.0,0.0,0.0,0.0,0.0
2026-05-25 09:41:31.064349,1779716491.064349,1329421,-321735,164414078,-27278,61989,-15069,61,efd3fe00,0.0,0.0,0.0,0.0,0.0,0.0
2026-05-25 09:41:31.080445,1779716491.080445,1301874,-330989,164384639,8632,109036,-18046,61,efd3fe00,0.0,0.0,0.0,0.0,0.0,0.0
2026-05-25 09:41:31.092061,1779716491.092061,1301874,-330989,164384639,8632,109036,-18046,61,efd3fe00,0.0,0.0,0.0,0.0,0.0,0.0
2026-05-25 09:41:31.100799,1779716491.100799,1131058,-277749,164444001,32257,127370,1200,61,efd3fe00,0.0,0.0,0.0,0.0,0.0,0.0
2026-05-25 09:41:31.113652,1779716491.113652,1131058,-277749,164444001,32257,127370,1200,61,efd3fe00,0.0,0.0,0.0,0.0,0.0,0.0
2026-05-25 09:41:31.122279,1779716491.122279,904545,-288483,164529837,38252,60508,-821,61,efd3fe00,0.0,0.0,0.0,0.0,0.0,0.0
2026-05-25 09:41:31.132900,1779716491.132900,904545,-288483,164529837,38252,60508,-821,61,efd3fe00,0.0,0.0,0.0,0.0,0.0,0.0
2026-05-25 09:41:31.144958,1779716491.144958,904545,-288483,164529837,38252,60508,-821,61,efd3fe00,0.0,0.0,0.0,0.0,0.0,0.0
2026-05-25 09:41:31.153137,1779716491.153137,823250,-367735,164582722,30302,-21728,-2398,61,efd3fe00,0.0,0.0,0.0,0.0,0.0,0.0
2026-05-25 09:41:31.168235,1779716491.168235,766278,-465951,164442280,-6947,-112054,-13167,61,efd3fe00,0.0,0.0,0.0,0.0,0.0,0.0
2026-05-25 09:41:31.183797,1779716491.183797,766278,-465951,164442280,-6947,-112054,-13167,61,efd3fe00,0.0,0.0,0.0,0.0,0.0,0.0
2026-05-25 09:41:31.194434,1779716491.194434,957585,-629369,164446239,-26607,-171667,-23973,61,efd3fe00,0.0,0.0,0.0,0.0,0.0,0.0
2026-05-25 09:41:31.207099,1779716491.207099,957585,-629369,164446239,-26607,-171667,-23973,61,efd3fe00,0.0,0.0,0.0,0.0,0.0,0.0
2026-05-25 09:41:31.221813,1779716491.221813,1106356,-693990,164325586,-30644,-157617,-27067,61,efd3fe00,0.0,0.0,0.0,0.0,0.0,0.0
2026-05-25 09:41:31.239182,1779716491.239182,1106356,-693990,164325586,-30644,-157617,-27067,61,efd3fe00,0.0,0.0,0.0,0.0,0.0,0.0
2026-05-25 09:41:31.252924,1779716491.252924,1344030,-741062,164324766,12508,-122059,-16847,61,efd3fe00,0.0,0.0,0.0,0.0,0.0,0.0
2026-05-25 09:41:31.268159,1779716491.268159,1344030,-741062,164324766,12508,-122059,-16847,61,efd3fe00,0.0,0.0,0.0,0.0,0.0,0.0
2026-05-25 09:41:31.280260,1779716491.280260,1436269,-683958,164265269,42048,-39876,-5041,61,efd3fe00,0.0,0.0,0.0,0.0,0.0,0.0
2026-05-25 09:41:31.294995,1779716491.294995,1436269,-683958,164265269,42048,-39876,-5041,61,efd3fe00,0.0,0.0,0.0,0.0,0.0,0.0
2026-05-25 09:41:31.306904,1779716491.306904,1484244,-548902,164292333,58810,48936,-4505,61,efd3fe00,0.0,0.0,0.0,0.0,0.0,0.0
2026-05-25 09:41:31.320562,1779716491.320562,1484244,-548902,164292333,58810,48936,-4505,61,efd3fe00,0.0,0.0,0.0,0.0,0.0,0.0
2026-05-25 09:41:31.327872,1779716491.327872,1404502,-388066,164322115,46286,126154,-24754,61,efd3fe00,0.0,0.0,0.0,0.0,0.0,0.0
2026-05-25 09:41:31.336844,1779716491.336844,1404502,-388066,164322115,46286,126154,-24754,61,efd3fe00,0.0,0.0,0.0,0.0,0.0,0.0
2026-05-25 09:41:31.344553,1779716491.344553,1340707,-216374,164324526,63060,167335,-43759,61,efd3fe00,0.0,0.0,0.0,0.0,0.0,0.0
2026-05-25 09:41:31.353818,1779716491.353818,1340707,-216374,164324526,63060,167335,-43759,61,efd3fe00,0.0,0.0,0.0,0.0,0.0,0.0
2026-05-25 09:41:31.361666,1779716491.361666,1187901,-122556,164361073,63851,148097,-54866,61,efd3fe00,0.0,0.0,0.0,0.0,0.0,0.0
2026-05-25 09:41:31.371042,1779716491.371042,1187901,-122556,164361073,63851,148097,-54866,61,efd3fe00,0.0,0.0,0.0,0.0,0.0,0.0
2026-05-25 09:41:31.378527,1779716491.378527,1067036,-110956,164425357,55523,121013,-26934,61,efd2fe00,0.0,0.0,0.0,0.0,0.0,0.0
2026-05-25 09:41:31.391585,1779716491.391585,1067036,-110956,164425357,55523,121013,-26934,61,efd2fe00,0.0,0.0,0.0,0.0,0.0,0.0
2026-05-25 09:41:31.406585,1779716491.406585,925597,-191007,164477298,27015,77621,-13103,61,efd2fe00,0.0,0.0,0.0,0.0,0.0,0.0
2026-05-25 09:41:31.422705,1779716491.422705,925597,-191007,164477298,27015,77621,-13103,61,efd2fe00,0.0,0.0,0.0,0.0,0.0,0.0
2026-05-25 09:41:31.430681,1779716491.430681,897651,-345217,164507716,21906,66866,9020,61,efd2fe00,0.0,0.0,0.0,0.0,0.0,0.0
2026-05-25 09:41:31.440103,1779716491.440103,897651,-345217,164507716,21906,66866,9020,61,efd2fe00,0.0,0.0,0.0,0.0,0.0,0.0
2026-05-25 09:41:31.447117,1779716491.447117,897449,-490829,164460592,30716,29520,14393,61,efd3fe00,0.0,0.0,0.0,0.0,0.0,0.0
2026-05-25 09:41:31.455994,1779716491.455994,897449,-490829,164460592,30716,29520,14393,61,efd3fe00,0.0,0.0,0.0,0.0,0.0,0.0
2026-05-25 09:41:31.463435,1779716491.463435,1019292,-632743,164427625,31704,28151,-775,61,efd3fe00,0.0,0.0,0.0,0.0,0.0,0.0
2026-05-25 09:41:31.476140,1779716491.476140,1019292,-632743,164427625,31704,28151,-775,61,efd3fe00,0.0,0.0,0.0,0.0,0.0,0.0
2026-05-25 09:41:31.484470,1779716491.484470,1171764,-712223,164363047,35500,9732,-45118,61,efd3fe00,0.0,0.0,0.0,0.0,0.0,0.0
2026-05-25 09:41:31.502144,1779716491.502144,1171764,-712223,164363047,35500,9732,-45118,61,efd3fe00,0.0,0.0,0.0,0.0,0.0,0.0
2026-05-25 09:41:31.511424,1779716491.511424,1298245,-679565,164342661,-525,25077,-43664,61,efd3fe00,0.0,0.0,0.0,0.0,0.0,0.0
2026-05-25 09:41:31.522524,1779716491.522524,1298245,-679565,164342661,-525,25077,-43664,61,efd3fe00,0.0,0.0,0.0,0.0,0.0,0.0
2026-05-25 09:41:31.531044,1779716491.531044,1271281,-601650,164355976,29860,64731,-24940,61,efd3fe00,0.0,0.0,0.0,0.0,0.0,0.0
2026-05-25 09:41:31.541742,1779716491.541742,1271281,-601650,164355976,29860,64731,-24940,61,efd3fe00,0.0,0.0,0.0,0.0,0.0,0.0
2026-05-25 09:41:31.550578,1779716491.550578,1156838,-464248,164429234,52540,97106,13065,61,efd3fe00,0.0,0.0,0.0,0.0,0.0,0.0
2026-05-25 09:41:31.561629,1779716491.561629,1156838,-464248,164429234,52540,97106,13065,61,efd3fe00,0.0,0.0,0.0,0.0,0.0,0.0
2026-05-25 09:41:31.569750,1779716491.569750,925428,-340916,164498312,91099,74197,3754,61,efd3fe00,0.0,0.0,0.0,0.0,0.0,0.0
2026-05-25 09:41:31.578589,1779716491.578589,925428,-340916,164498312,91099,74197,3754,61,efd3fe00,0.0,0.0,0.0,0.0,0.0,0.0
2026-05-25 09:41:31.587022,1779716491.587022,791908,-279074,164544219,78092,-14249,-6493,61,efd3fe00,0.0,0.0,0.0,0.0,0.0,0.0
2026-05-25 09:41:31.598537,1779716491.598537,791908,-279074,164544219,78092,-14249,-6493,61,efd3fe00,0.0,0.0,0.0,0.0,0.0,0.0
2026-05-25 09:41:31.606873,1779716491.606873,825588,-230518,164524092,30560,-102581,-18474,61,efd3fe00,0.0,0.0,0.0,0.0,0.0,0.0
2026-05-25 09:41:31.618788,1779716491.618788,825588,-230518,164524092,30560,-102581,-18474,61,efd3fe00,0.0,0.0,0.0,0.0,0.0,0.0
2026-05-25 09:41:31.627822,1779716491.627822,1018049,-265358,164415046,-19765,-172877,-42744,61,efd2fe00,0.0,0.0,0.0,0.0,0.0,0.0
2026-05-25 09:41:31.638991,1779716491.638991,1018049,-265358,164415046,-19765,-172877,-42744,61,efd2fe00,0.0,0.0,0.0,0.0,0.0,0.0
2026-05-25 09:41:31.647515,1779716491.647515,1342088,-339666,164316015,-10707,-171015,-30268,61,efd2fe00,0.0,0.0,0.0,0.0,0.0,0.0
2026-05-25 09:41:31.657161,1779716491.657161,1342088,-339666,164316015,-10707,-171015,-30268,61,efd2fe00,0.0,0.0,0.0,0.0,0.0,0.0
2026-05-25 09:41:31.664560,1779716491.664560,1569821,-441527,164212423,13178,-120623,-36143,61,efd3fe00,0.0,0.0,0.0,0.0,0.0,0.0
2026-05-25 09:41:31.673894,1779716491.673894,1569821,-441527,164212423,13178,-120623,-36143,61,efd3fe00,0.0,0.0,0.0,0.0,0.0,0.0
2026-05-25 09:41:31.682256,1779716491.682256,1702144,-549313,164176958,55531,-28016,-16871,61,efd3fe00,0.0,0.0,0.0,0.0,0.0,0.0
2026-05-25 09:41:31.692474,1779716491.692474,1702144,-549313,164176958,55531,-28016,-16871,61,efd3fe00,0.0,0.0,0.0,0.0,0.0,0.0
2026-05-25 09:41:31.701805,1779716491.701805,1565138,-555805,164182668,66888,95503,-3416,61,efd3fe00,0.0,0.0,0.0,0.0,0.0,0.0
2026-05-25 09:41:31.711763,1779716491.711763,1565138,-555805,164182668,66888,95503,-3416,61,efd3fe00,0.0,0.0,0.0,0.0,0.0,0.0
2026-05-25 09:41:31.719762,1779716491.719762,1391516,-552949,164249213,68807,170070,8581,61,efd3fe00,0.0,0.0,0.0,0.0,0.0,0.0
2026-05-25 09:41:31.732800,1779716491.732800,1391516,-552949,164249213,68807,170070,8581,61,efd3fe00,0.0,0.0,0.0,0.0,0.0,0.0
2026-05-25 09:41:31.747701,1779716491.747701,1047162,-486238,164341319,54029,211572,-3639,61,efd3fe00,0.0,0.0,0.0,0.0,0.0,0.0
2026-05-25 09:41:31.811161,1779716491.811161,1047162,-486238,164341319,54029,211572,-3639,61,efd3fe00,0.0,0.0,0.0,0.0,0.0,0.0
2026-05-25 09:41:31.852119,1779716491.852119,912206,-435875,164435315,58550,183435,-23948,61,efd3fe00,0.0,0.0,0.0,0.0,0.0,0.0
2026-05-25 09:41:31.863113,1779716491.863113,912206,-435875,164435315,58550,183435,-23948,61,efd3fe00,0.0,0.0,0.0,0.0,0.0,0.0
2026-05-25 09:41:31.871410,1779716491.871410,855608,-430968,164484975,51888,119882,-18274,61,efd3fe00,0.0,0.0,0.0,0.0,0.0,0.0
2026-05-25 09:41:31.888970,1779716491.888970,855608,-430968,164484975,51888,119882,-18274,61,efd3fe00,0.0,0.0,0.0,0.0,0.0,0.0
2026-05-25 09:41:31.903403,1779716491.903403,907305,-413433,164462192,46623,45508,-16602,61,efd3fe00,0.0,0.0,0.0,0.0,0.0,0.0
2026-05-25 09:41:31.921242,1779716491.921242,907305,-413433,164462192,46623,45508,-16602,61,efd3fe00,0.0,0.0,0.0,0.0,0.0,0.0
2026-05-25 09:41:31.935499,1779716491.935499,1004976,-434263,164450872,37945,-18358,-15550,61,efd3fe00,0.0,0.0,0.0,0.0,0.0,0.0
2026-05-25 09:41:31.953449,1779716491.953449,1004976,-434263,164450872,37945,-18358,-15550,61,efd3fe00,0.0,0.0,0.0,0.0,0.0,0.0
2026-05-25 09:41:31.967169,1779716491.967169,1107212,-393021,164452676,38531,-43954,-30733,61,efd3fe00,0.0,0.0,0.0,0.0,0.0,0.0
2026-05-25 09:41:31.976638,1779716491.976638,1107212,-393021,164452676,38531,-43954,-30733,61,efd3fe00,0.0,0.0,0.0,0.0,0.0,0.0
2026-05-25 09:41:31.985096,1779716491.985096,1176652,-382381,164451584,72911,-26038,-20266,61,efd3fe00,0.0,0.0,0.0,0.0,0.0,0.0
2026-05-25 09:41:32.002119,1779716492.002119,1176652,-382381,164451584,72911,-26038,-20266,61,efd3fe00,0.0,0.0,0.0,0.0,0.0,0.0
2026-05-25 09:41:32.008806,1779716492.008806,1171942,-380490,164432820,95064,9206,7866,61,efd3fe00,0.0,0.0,0.0,0.0,0.0,0.0
2026-05-25 09:41:32.021228,1779716492.021228,1171942,-380490,164432820,95064,9206,7866,61,efd3fe00,0.0,0.0,0.0,0.0,0.0,0.0
2026-05-25 09:41:32.035124,1779716492.035124,1083934,-335221,164404802,103193,14188,5324,61,efd3fe00,0.0,0.0,0.0,0.0,0.0,0.0
2026-05-25 09:41:32.052503,1779716492.052503,1083934,-335221,164404802,103193,14188,5324,61,efd3fe00,0.0,0.0,0.0,0.0,0.0,0.0
2026-05-25 09:41:32.066804,1779716492.066804,1013997,-394681,164379747,76060,17471,-3884,61,efd3fe00,0.0,0.0,0.0,0.0,0.0,0.0
2026-05-25 09:41:32.084287,1779716492.084287,1013997,-394681,164379747,76060,17471,-3884,61,efd3fe00,0.0,0.0,0.0,0.0,0.0,0.0
2026-05-25 09:41:32.098552,1779716492.098552,999281,-393429,164398367,52951,-12471,-23796,61,efd3fe00,0.0,0.0,0.0,0.0,0.0,0.0
2026-05-25 09:41:32.116186,1779716492.116186,999281,-393429,164398367,52951,-12471,-23796,61,efd3fe00,0.0,0.0,0.0,0.0,0.0,0.0
2026-05-25 09:41:32.130167,1779716492.130167,1096172,-442429,164403784,23943,-28372,-41318,61,efd3fe00,0.0,0.0,0.0,0.0,0.0,0.0
2026-05-25 09:41:32.147456,1779716492.147456,1096172,-442429,164403784,23943,-28372,-41318,61,efd3fe00,0.0,0.0,0.0,0.0,0.0,0.0
2026-05-25 09:41:32.160970,1779716492.160970,1187415,-484156,164426281,27256,-33271,-33497,61,efd3fe00,0.0,0.0,0.0,0.0,0.0,0.0
2026-05-25 09:41:32.178243,1779716492.178243,1187415,-484156,164426281,27256,-33271,-33497,61,efd3fe00,0.0,0.0,0.0,0.0,0.0,0.0
2026-05-25 09:41:32.192306,1779716492.192306,1278012,-522221,164388158,35963,-26584,-25754,61,efd3fe00,0.0,0.0,0.0,0.0,0.0,0.0
2026-05-25 09:41:32.207041,1779716492.207041,1278012,-522221,164388158,35963,-26584,-25754,61,efd3fe00,0.0,0.0,0.0,0.0,0.0,0.0
2026-05-25 09:41:32.214710,1779716492.214710,1303019,-502021,164311903,65986,19380,-19679,61,efd3fe00,0.0,0.0,0.0,0.0,0.0,0.0
2026-05-25 09:41:32.223694,1779716492.223694,1303019,-502021,164311903,65986,19380,-19679,61,efd3fe00,0.0,0.0,0.0,0.0,0.0,0.0
2026-05-25 09:41:32.231939,1779716492.231939,1351776,-445998,164274928,85954,46705,-13909,61,efd3fe00,0.0,0.0,0.0,0.0,0.0,0.0
2026-05-25 09:41:32.241264,1779716492.241264,1351776,-445998,164274928,85954,46705,-13909,61,efd3fe00,0.0,0.0,0.0,0.0,0.0,0.0
2026-05-25 09:41:32.248443,1779716492.248443,1277344,-415982,164286895,98859,96970,-9261,61,efd3fe00,0.0,0.0,0.0,0.0,0.0,0.0
2026-05-25 09:41:32.257342,1779716492.257342,1277344,-415982,164286895,98859,96970,-9261,61,efd3fe00,0.0,0.0,0.0,0.0,0.0,0.0
2026-05-25 09:41:32.265794,1779716492.265794,1248521,-390858,164325675,90786,117438,-7387,61,efd3fe00,0.0,0.0,0.0,0.0,0.0,0.0
2026-05-25 09:41:32.276547,1779716492.276547,1248521,-390858,164325675,90786,117438,-7387,61,efd3fe00,0.0,0.0,0.0,0.0,0.0,0.0
2026-05-25 09:41:32.284341,1779716492.284341,1166155,-377068,164401289,80764,112443,4227,61,efd2fe00,0.0,0.0,0.0,0.0,0.0,0.0
2026-05-25 09:41:32.294856,1779716492.294856,1166155,-377068,164401289,80764,112443,4227,61,efd2fe00,0.0,0.0,0.0,0.0,0.0,0.0
2026-05-25 09:41:32.302697,1779716492.302697,1123941,-345119,164424118,58171,100591,-24602,61,efd3fe00,0.0,0.0,0.0,0.0,0.0,0.0
2026-05-25 09:41:32.315942,1779716492.315942,1123941,-345119,164424118,58171,100591,-24602,61,efd3fe00,0.0,0.0,0.0,0.0,0.0,0.0
2026-05-25 09:41:32.325304,1779716492.325304,1109521,-340884,164443744,61788,84060,-17878,61,efd3fe00,0.0,0.0,0.0,0.0,0.0,0.0
2026-05-25 09:41:32.342199,1779716492.342199,1109521,-340884,164443744,61788,84060,-17878,61,efd3fe00,0.0,0.0,0.0,0.0,0.0,0.0
2026-05-25 09:41:32.351780,1779716492.351780,1125639,-362717,164426832,25978,71336,-22194,61,efd3fe00,0.0,0.0,0.0,0.0,0.0,0.0
2026-05-25 09:41:32.362147,1779716492.362147,1125639,-362717,164426832,25978,71336,-22194,61,efd3fe00,0.0,0.0,0.0,0.0,0.0,0.0
2026-05-25 09:41:32.369120,1779716492.369120,1135450,-363886,164394209,20538,39832,-12396,61,efd3fe00,0.0,0.0,0.0,0.0,0.0,0.0
2026-05-25 09:41:32.377874,1779716492.377874,1135450,-363886,164394209,20538,39832,-12396,61,efd3fe00,0.0,0.0,0.0,0.0,0.0,0.0
2026-05-25 09:41:32.384720,1779716492.384720,1115713,-380470,164369476,26320,22385,-28764,61,efd3fe00,0.0,0.0,0.0,0.0,0.0,0.0
2026-05-25 09:41:32.393405,1779716492.393405,1115713,-380470,164369476,26320,22385,-28764,61,efd3fe00,0.0,0.0,0.0,0.0,0.0,0.0
2026-05-25 09:41:32.402061,1779716492.402061,1093944,-321705,164376466,34324,7719,-20121,61,efd3fe00,0.0,0.0,0.0,0.0,0.0,0.0
2026-05-25 09:41:32.411780,1779716492.411780,1093944,-321705,164376466,34324,7719,-20121,61,efd3fe00,0.0,0.0,0.0,0.0,0.0,0.0
2026-05-25 09:41:32.418882,1779716492.418882,1062039,-332341,164411685,31231,13750,-13299,61,efd3fe00,0.0,0.0,0.0,0.0,0.0,0.0
2026-05-25 09:41:32.427973,1779716492.427973,1062039,-332341,164411685,31231,13750,-13299,61,efd3fe00,0.0,0.0,0.0,0.0,0.0,0.0
2026-05-25 09:41:32.436001,1779716492.436001,1095658,-317968,164409533,-3756,340,619,61,efd2fe00,0.0,0.0,0.0,0.0,0.0,0.0
2026-05-25 09:41:32.444912,1779716492.444912,1095658,-317968,164409533,-3756,340,619,61,efd2fe00,0.0,0.0,0.0,0.0,0.0,0.0
2026-05-25 09:41:32.451932,1779716492.451932,1099902,-402862,164378031,17351,11267,-18908,61,efd2fe00,0.0,0.0,0.0,0.0,0.0,0.0
2026-05-25 09:41:32.460928,1779716492.460928,1099902,-402862,164378031,17351,11267,-18908,61,efd2fe00,0.0,0.0,0.0,0.0,0.0,0.0
2026-05-25 09:41:32.468237,1779716492.468237,1138166,-413397,164306911,39939,10060,-17029,61,efd2fe00,0.0,0.0,0.0,0.0,0.0,0.0
2026-05-25 09:41:32.477069,1779716492.477069,1138166,-413397,164306911,39939,10060,-17029,61,efd2fe00,0.0,0.0,0.0,0.0,0.0,0.0
2026-05-25 09:41:32.483793,1779716492.483793,1188792,-486494,164317785,49793,-5753,-30641,61,efd2fe00,0.0,0.0,0.0,0.0,0.0,0.0
2026-05-25 09:41:32.492798,1779716492.492798,1188792,-486494,164317785,49793,-5753,-30641,61,efd2fe00,0.0,0.0,0.0,0.0,0.0,0.0
2026-05-25 09:41:32.499703,1779716492.499703,1211579,-494987,164330679,73627,19818,-17264,61,efd3fe00,0.0,0.0,0.0,0.0,0.0,0.0
2026-05-25 09:41:32.507820,1779716492.507820,1211579,-494987,164330679,73627,19818,-17264,61,efd3fe00,0.0,0.0,0.0,0.0,0.0,0.0
2026-05-25 09:41:32.514407,1779716492.514407,1176419,-488332,164344154,65215,9425,-31096,61,efd3fe00,0.0,0.0,0.0,0.0,0.0,0.0
2026-05-25 09:41:32.522766,1779716492.522766,1176419,-488332,164344154,65215,9425,-31096,61,efd3fe00,0.0,0.0,0.0,0.0,0.0,0.0
2026-05-25 09:41:32.529422,1779716492.529422,1133662,-426134,164345245,87874,23970,-25022,61,efd3fe00,0.0,0.0,0.0,0.0,0.0,0.0
2026-05-25 09:41:32.537522,1779716492.537522,1133662,-426134,164345245,87874,23970,-25022,61,efd3fe00,0.0,0.0,0.0,0.0,0.0,0.0
2026-05-25 09:41:32.545272,1779716492.545272,1106116,-375144,164361520,69072,-13496,-12279,61,efd3fe00,0.0,0.0,0.0,0.0,0.0,0.0
2026-05-25 09:41:32.558486,1779716492.558486,1106116,-375144,164361520,69072,-13496,-12279,61,efd3fe00,0.0,0.0,0.0,0.0,0.0,0.0
2026-05-25 09:41:32.573711,1779716492.573711,1062225,-380271,164402825,90544,-23452,1842,61,efd3fe00,0.0,0.0,0.0,0.0,0.0,0.0
2026-05-25 09:41:32.585529,1779716492.585529,1062225,-380271,164402825,90544,-23452,1842,61,efd3fe00,0.0,0.0,0.0,0.0,0.0,0.0
2026-05-25 09:41:32.593098,1779716492.593098,1082088,-408537,164413943,75800,-25146,4657,61,efd3fe00,0.0,0.0,0.0,0.0,0.0,0.0
2026-05-25 09:41:32.605446,1779716492.605446,1082088,-408537,164413943,75800,-25146,4657,61,efd3fe00,0.0,0.0,0.0,0.0,0.0,0.0
2026-05-25 09:41:32.613186,1779716492.613186,1139066,-415252,164445954,57777,-17339,15280,61,efd3fe00,0.0,0.0,0.0,0.0,0.0,0.0
2026-05-25 09:41:32.631494,1779716492.631494,1139066,-415252,164445954,57777,-17339,15280,61,efd3fe00,0.0,0.0,0.0,0.0,0.0,0.0
2026-05-25 09:41:32.645955,1779716492.645955,1233663,-454910,164442631,47897,16487,-5967,61,efd3fe00,0.0,0.0,0.0,0.0,0.0,0.0
2026-05-25 09:41:32.664575,1779716492.664575,1233663,-454910,164442631,47897,16487,-5967,61,efd3fe00,0.0,0.0,0.0,0.0,0.0,0.0
2026-05-25 09:41:32.679131,1779716492.679131,1315652,-423168,164419466,40021,35040,-6660,61,efd2fe00,0.0,0.0,0.0,0.0,0.0,0.0
2026-05-25 09:41:32.697047,1779716492.697047,1315652,-423168,164419466,40021,35040,-6660,61,efd2fe00,0.0,0.0,0.0,0.0,0.0,0.0
2026-05-25 09:41:32.711810,1779716492.711810,1288830,-413157,164403590,52168,74498,-28606,61,efd2fe00,0.0,0.0,0.0,0.0,0.0,0.0
2026-05-25 09:41:32.727163,1779716492.727163,1288830,-413157,164403590,52168,74498,-28606,61,efd2fe00,0.0,0.0,0.0,0.0,0.0,0.0
2026-05-25 09:41:32.736800,1779716492.736800,1208822,-367394,164366511,44880,83814,-25338,61,efd2fe00,0.0,0.0,0.0,0.0,0.0,0.0
2026-05-25 09:41:32.752251,1779716492.752251,1208822,-367394,164366511,44880,83814,-25338,61,efd2fe00,0.0,0.0,0.0,0.0,0.0,0.0
2026-05-25 09:41:32.761093,1779716492.761093,1127676,-371866,164414025,56077,88679,-12954,61,efd2fe00,0.0,0.0,0.0,0.0,0.0,0.0
2026-05-25 09:41:32.769877,1779716492.769877,1127676,-371866,164414025,56077,88679,-12954,61,efd2fe00,0.0,0.0,0.0,0.0,0.0,0.0
2026-05-25 09:41:32.777150,1779716492.777150,1098924,-360985,164442505,60955,90038,16101,61,efd2fe00,0.0,0.0,0.0,0.0,0.0,0.0
2026-05-25 09:41:32.786171,1779716492.786171,1098924,-360985,164442505,60955,90038,16101,61,efd2fe00,0.0,0.0,0.0,0.0,0.0,0.0
2026-05-25 09:41:32.793574,1779716492.793574,1106918,-388669,164452933,52326,47378,25669,61,efd2fe00,0.0,0.0,0.0,0.0,0.0,0.0
2026-05-25 09:41:32.802287,1779716492.802287,1106918,-388669,164452933,52326,47378,25669,61,efd2fe00,0.0,0.0,0.0,0.0,0.0,0.0
2026-05-25 09:41:32.811163,1779716492.811163,1077642,-360185,164462410,21352,36637,23847,61,efd2fe00,0.0,0.0,0.0,0.0,0.0,0.0
2026-05-25 09:41:32.821247,1779716492.821247,1077642,-360185,164462410,21352,36637,23847,61,efd2fe00,0.0,0.0,0.0,0.0,0.0,0.0
2026-05-25 09:41:32.829221,1779716492.829221,1094473,-382924,164403152,-13363,-7296,-6657,61,efd3fe00,0.0,0.0,0.0,0.0,0.0,0.0
2026-05-25 09:41:32.838353,1779716492.838353,1094473,-382924,164403152,-13363,-7296,-6657,61,efd3fe00,0.0,0.0,0.0,0.0,0.0,0.0
2026-05-25 09:41:32.845144,1779716492.845144,1130746,-445361,164413368,-30402,-171,-18161,61,efd2fe00,0.0,0.0,0.0,0.0,0.0,0.0
2026-05-25 09:41:32.853551,1779716492.853551,1130746,-445361,164413368,-30402,-171,-18161,61,efd2fe00,0.0,0.0,0.0,0.0,0.0,0.0
2026-05-25 09:41:32.861922,1779716492.861922,1135138,-492773,164393465,-489,7971,-29014,61,efd3fe00,0.0,0.0,0.0,0.0,0.0,0.0
2026-05-25 09:41:32.873486,1779716492.873486,1135138,-492773,164393465,-489,7971,-29014,61,efd3fe00,0.0,0.0,0.0,0.0,0.0,0.0
2026-05-25 09:41:32.880659,1779716492.880659,1123216,-571900,164386611,36666,-610,-7384,61,efd3fe00,0.0,0.0,0.0,0.0,0.0,0.0
2026-05-25 09:41:32.889379,1779716492.889379,1123216,-571900,164386611,36666,-610,-7384,61,efd3fe00,0.0,0.0,0.0,0.0,0.0,0.0
2026-05-25 09:41:32.897033,1779716492.897033,1077939,-620852,164353932,67428,5639,-13274,61,efd2fe00,0.0,0.0,0.0,0.0,0.0,0.0
2026-05-25 09:41:32.905869,1779716492.905869,1077939,-620852,164353932,67428,5639,-13274,61,efd2fe00,0.0,0.0,0.0,0.0,0.0,0.0
2026-05-25 09:41:32.913239,1779716492.913239,1083975,-614590,164346396,72133,3506,-12049,61,efd2fe00,0.0,0.0,0.0,0.0,0.0,0.0
2026-05-25 09:41:32.921536,1779716492.921536,1083975,-614590,164346396,72133,3506,-12049,61,efd2fe00,0.0,0.0,0.0,0.0,0.0,0.0
2026-05-25 09:41:32.932171,1779716492.932171,1108246,-582193,164356353,55416,23794,-41439,61,efd2fe00,0.0,0.0,0.0,0.0,0.0,0.0
2026-05-25 09:41:32.940787,1779716492.940787,1108246,-582193,164356353,55416,23794,-41439,61,efd2fe00,0.0,0.0,0.0,0.0,0.0,0.0
2026-05-25 09:41:32.947642,1779716492.947642,1196939,-476905,164348076,48516,42300,-32447,61,efd3fe00,0.0,0.0,0.0,0.0,0.0,0.0
2026-05-25 09:41:32.956365,1779716492.956365,1196939,-476905,164348076,48516,42300,-32447,61,efd3fe00,0.0,0.0,0.0,0.0,0.0,0.0
2026-05-25 09:41:32.962995,1779716492.962995,1253782,-417904,164312317,36206,67898,-27155,61,efd3fe00,0.0,0.0,0.0,0.0,0.0,0.0
2026-05-25 09:41:32.973434,1779716492.973434,1253782,-417904,164312317,36206,67898,-27155,61,efd3fe00,0.0,0.0,0.0,0.0,0.0,0.0
2026-05-25 09:41:32.982043,1779716492.982043,1274335,-344612,164334396,65596,110001,-21833,61,efd2fe00,0.0,0.0,0.0,0.0,0.0,0.0
2026-05-25 09:41:32.992529,1779716492.992529,1274335,-344612,164334396,65596,110001,-21833,61,efd2fe00,0.0,0.0,0.0,0.0,0.0,0.0
2026-05-25 09:41:33.000933,1779716493.000933,1192522,-288225,164350711,82086,130241,776,61,efd2fe00,0.0,0.0,0.0,0.0,0.0,0.0
2026-05-25 09:41:33.010199,1779716493.010199,1192522,-288225,164350711,82086,130241,776,61,efd2fe00,0.0,0.0,0.0,0.0,0.0,0.0
2026-05-25 09:41:33.018868,1779716493.018868,1142215,-241323,164368598,69252,121153,-6091,61,efd2fe00,0.0,0.0,0.0,0.0,0.0,0.0
2026-05-25 09:41:33.029562,1779716493.029562,1142215,-241323,164368598,69252,121153,-6091,61,efd2fe00,0.0,0.0,0.0,0.0,0.0,0.0
2026-05-25 09:41:33.038647,1779716493.038647,1097531,-238396,164396144,40297,84570,98,61,efd2fe00,0.0,0.0,0.0,0.0,0.0,0.0
2026-05-25 09:41:33.047826,1779716493.047826,1097531,-238396,164396144,40297,84570,98,61,efd2fe00,0.0,0.0,0.0,0.0,0.0,0.0
2026-05-25 09:41:33.055197,1779716493.055197,1081038,-283423,164385873,2089,63679,-8279,61,efd2fe00,0.0,0.0,0.0,0.0,0.0,0.0
2026-05-25 09:41:33.073183,1779716493.073183,1081038,-283423,164385873,2089,63679,-8279,61,efd2fe00,0.0,0.0,0.0,0.0,0.0,0.0
2026-05-25 09:41:33.081183,1779716493.081183,1057860,-340165,164431735,-13557,46537,-16733,61,efd3fe00,0.0,0.0,0.0,0.0,0.0,0.0
2026-05-25 09:41:33.090814,1779716493.090814,1057860,-340165,164431735,-13557,46537,-16733,61,efd3fe00,0.0,0.0,0.0,0.0,0.0,0.0
2026-05-25 09:41:33.098616,1779716493.098616,1097202,-411118,164414611,4853,33369,-741,61,efd3fe00,0.0,0.0,0.0,0.0,0.0,0.0
2026-05-25 09:41:33.107596,1779716493.107596,1097202,-411118,164414611,4853,33369,-741,61,efd3fe00,0.0,0.0,0.0,0.0,0.0,0.0
2026-05-25 09:41:33.114580,1779716493.114580,1117635,-518524,164464910,16718,38280,-2776,61,efd3fe00,0.0,0.0,0.0,0.0,0.0,0.0
2026-05-25 09:41:33.124265,1779716493.124265,1117635,-518524,164464910,16718,38280,-2776,61,efd3fe00,0.0,0.0,0.0,0.0,0.0,0.0
2026-05-25 09:41:33.132183,1779716493.132183,1148558,-569983,164426319,20795,11805,3407,61,efd3fe00,0.0,0.0,0.0,0.0,0.0,0.0
2026-05-25 09:41:33.149068,1779716493.149068,1148558,-569983,164426319,20795,11805,3407,61,efd3fe00,0.0,0.0,0.0,0.0,0.0,0.0
2026-05-25 09:41:33.157560,1779716493.157560,1135977,-581750,164439391,40053,23281,-3813,61,efd3fe00,0.0,0.0,0.0,0.0,0.0,0.0
2026-05-25 09:41:33.166831,1779716493.166831,1135977,-581750,164439391,40053,23281,-3813,61,efd3fe00,0.0,0.0,0.0,0.0,0.0,0.0
2026-05-25 09:41:33.174756,1779716493.174756,1086365,-529397,164417197,33750,-21482,689,61,efd3fe00,0.0,0.0,0.0,0.0,0.0,0.0
2026-05-25 09:41:33.183706,1779716493.183706,1086365,-529397,164417197,33750,-21482,689,61,efd3fe00,0.0,0.0,0.0,0.0,0.0,0.0
2026-05-25 09:41:33.191331,1779716493.191331,1040863,-486809,164438810,24019,-1757,8356,61,efd3fe00,0.0,0.0,0.0,0.0,0.0,0.0
2026-05-25 09:41:33.200608,1779716493.200608,1040863,-486809,164438810,24019,-1757,8356,61,efd3fe00,0.0,0.0,0.0,0.0,0.0,0.0
2026-05-25 09:41:33.208232,1779716493.208232,1029600,-434727,164408903,24497,12312,-2195,61,efd3fe00,0.0,0.0,0.0,0.0,0.0,0.0
2026-05-25 09:41:33.217435,1779716493.217435,1029600,-434727,164408903,24497,12312,-2195,61,efd3fe00,0.0,0.0,0.0,0.0,0.0,0.0
2026-05-25 09:41:33.224225,1779716493.224225,1118316,-448036,164405160,36631,34250,-16977,61,efd3fe00,0.0,0.0,0.0,0.0,0.0,0.0
2026-05-25 09:41:33.232487,1779716493.232487,1118316,-448036,164405160,36631,34250,-16977,61,efd3fe00,0.0,0.0,0.0,0.0,0.0,0.0
2026-05-25 09:41:33.239535,1779716493.239535,1196286,-416939,164348694,45167,51005,-21277,61,efd3fe00,0.0,0.0,0.0,0.0,0.0,0.0
2026-05-25 09:41:33.251452,1779716493.251452,1196286,-416939,164348694,45167,51005,-21277,61,efd3fe00,0.0,0.0,0.0,0.0,0.0,0.0
2026-05-25 09:41:33.267855,1779716493.267855,1261017,-392079,164320094,51481,41303,-21623,61,efd2fe00,0.0,0.0,0.0,0.0,0.0,0.0
2026-05-25 09:41:33.285439,1779716493.285439,1261017,-392079,164320094,51481,41303,-21623,61,efd2fe00,0.0,0.0,0.0,0.0,0.0,0.0
2026-05-25 09:41:33.299691,1779716493.299691,1209175,-365281,164350979,62231,74455,-3949,61,efd2fe00,0.0,0.0,0.0,0.0,0.0,0.0
2026-05-25 09:41:33.316910,1779716493.316910,1209175,-365281,164350979,62231,74455,-3949,61,efd2fe00,0.0,0.0,0.0,0.0,0.0,0.0
2026-05-25 09:41:33.331596,1779716493.331596,1165462,-341084,164388081,77629,91640,819,61,efd2fe00,0.0,0.0,0.0,0.0,0.0,0.0
2026-05-25 09:41:33.349771,1779716493.349771,1165462,-341084,164388081,77629,91640,819,61,efd2fe00,0.0,0.0,0.0,0.0,0.0,0.0
2026-05-25 09:41:33.358310,1779716493.358310,1072466,-355146,164479982,61195,95822,-6571,61,efd2fe00,0.0,0.0,0.0,0.0,0.0,0.0
2026-05-25 09:41:33.367989,1779716493.367989,1072466,-355146,164479982,61195,95822,-6571,61,efd2fe00,0.0,0.0,0.0,0.0,0.0,0.0
2026-05-25 09:41:33.376606,1779716493.376606,1014906,-401438,164483700,30741,85044,-1562,61,efd2fe00,0.0,0.0,0.0,0.0,0.0,0.0
2026-05-25 09:41:33.388269,1779716493.388269,1014906,-401438,164483700,30741,85044,-1562,61,efd2fe00,0.0,0.0,0.0,0.0,0.0,0.0
2026-05-25 09:41:33.400823,1779716493.400823,938111,-444969,164443679,17664,64526,2801,61,efd2fe00,0.0,0.0,0.0,0.0,0.0,0.0
2026-05-25 09:41:33.410128,1779716493.410128,938111,-444969,164443679,17664,64526,2801,61,efd2fe00,0.0,0.0,0.0,0.0,0.0,0.0
2026-05-25 09:41:33.423350,1779716493.423350,990053,-492328,164408997,40173,25743,10997,61,efd2fe00,0.0,0.0,0.0,0.0,0.0,0.0
2026-05-25 09:41:33.441196,1779716493.441196,990053,-492328,164408997,40173,25743,10997,61,efd2fe00,0.0,0.0,0.0,0.0,0.0,0.0
2026-05-25 09:41:33.454726,1779716493.454726,1002275,-481641,164352332,51774,-22894,11420,61,efd2fe00,0.0,0.0,0.0,0.0,0.0,0.0
2026-05-25 09:41:33.471844,1779716493.471844,1002275,-481641,164352332,51774,-22894,11420,61,efd2fe00,0.0,0.0,0.0,0.0,0.0,0.0
2026-05-25 09:41:33.486456,1779716493.486456,1063125,-518644,164350694,34368,-36439,23533,61,efd2fe00,0.0,0.0,0.0,0.0,0.0,0.0
2026-05-25 09:41:33.495878,1779716493.495878,1063125,-518644,164350694,34368,-36439,23533,61,efd2fe00,0.0,0.0,0.0,0.0,0.0,0.0
2026-05-25 09:41:33.503363,1779716493.503363,1082181,-466881,164295825,14094,-33127,31029,61,efd2fe00,0.0,0.0,0.0,0.0,0.0,0.0
2026-05-25 09:41:33.512821,1779716493.512821,1082181,-466881,164295825,14094,-33127,31029,61,efd2fe00,0.0,0.0,0.0,0.0,0.0,0.0
2026-05-25 09:41:33.520654,1779716493.520654,1174883,-422827,164304697,15821,9166,24008,61,efd2fe00,0.0,0.0,0.0,0.0,0.0,0.0
2026-05-25 09:41:33.530175,1779716493.530175,1174883,-422827,164304697,15821,9166,24008,61,efd2fe00,0.0,0.0,0.0,0.0,0.0,0.0
2026-05-25 09:41:33.537099,1779716493.537099,1247474,-338081,164320016,6295,2149,859,61,efd2fe00,0.0,0.0,0.0,0.0,0.0,0.0
2026-05-25 09:41:33.546702,1779716493.546702,1247474,-338081,164320016,6295,2149,859,61,efd2fe00,0.0,0.0,0.0,0.0,0.0,0.0
2026-05-25 09:41:33.561899,1779716493.561899,1290013,-236533,164321241,13423,16784,5216,61,efd2fe00,0.0,0.0,0.0,0.0,0.0,0.0
2026-05-25 09:41:33.573704,1779716493.573704,1290013,-236533,164321241,13423,16784,5216,61,efd2fe00,0.0,0.0,0.0,0.0,0.0,0.0
2026-05-25 09:41:33.580880,1779716493.580880,1294052,-281317,164358214,33434,34506,12932,61,efd2fe00,0.0,0.0,0.0,0.0,0.0,0.0
2026-05-25 09:41:33.590152,1779716493.590152,1294052,-281317,164358214,33434,34506,12932,61,efd2fe00,0.0,0.0,0.0,0.0,0.0,0.0
2026-05-25 09:41:33.599829,1779716493.599829,1221832,-300326,164402146,46340,39856,-11786,61,efd2fe00,0.0,0.0,0.0,0.0,0.0,0.0
2026-05-25 09:41:33.609188,1779716493.609188,1221832,-300326,164402146,46340,39856,-11786,61,efd2fe00,0.0,0.0,0.0,0.0,0.0,0.0
2026-05-25 09:41:33.617099,1779716493.617099,1194969,-431932,164486969,34388,42112,-23242,61,efd2fe00,0.0,0.0,0.0,0.0,0.0,0.0
2026-05-25 09:41:33.626545,1779716493.626545,1194969,-431932,164486969,34388,42112,-23242,61,efd2fe00,0.0,0.0,0.0,0.0,0.0,0.0
2026-05-25 09:41:33.634171,1779716493.634171,1086436,-481093,164457375,37847,36765,-11342,61,efd2fe00,0.0,0.0,0.0,0.0,0.0,0.0
2026-05-25 09:41:33.643367,1779716493.643367,1086436,-481093,164457375,37847,36765,-11342,61,efd2fe00,0.0,0.0,0.0,0.0,0.0,0.0
2026-05-25 09:41:33.652828,1779716493.652828,1102152,-551425,164393523,20966,17011,-10553,61,efd2fe00,0.0,0.0,0.0,0.0,0.0,0.0
2026-05-25 09:41:33.661704,1779716493.661704,1102152,-551425,164393523,20966,17011,-10553,61,efd2fe00,0.0,0.0,0.0,0.0,0.0,0.0
2026-05-25 09:41:33.676002,1779716493.676002,1149825,-599782,164360865,27660,37896,4677,61,efd2fe00,0.0,0.0,0.0,0.0,0.0,0.0
2026-05-25 09:41:33.693261,1779716493.693261,1149825,-599782,164360865,27660,37896,4677,61,efd2fe00,0.0,0.0,0.0,0.0,0.0,0.0
2026-05-25 09:41:33.706534,1779716493.706534,1189739,-644039,164342533,30038,50456,-5478,61,efd2fe00,0.0,0.0,0.0,0.0,0.0,0.0
2026-05-25 09:41:33.722059,1779716493.722059,1189739,-644039,164342533,30038,50456,-5478,61,efd2fe00,0.0,0.0,0.0,0.0,0.0,0.0
2026-05-25 09:41:33.731627,1779716493.731627,1237672,-652135,164344526,50432,73510,-5601,61,efd2fe00,0.0,0.0,0.0,0.0,0.0,0.0
2026-05-25 09:41:33.745368,1779716493.745368,1237672,-652135,164344526,50432,73510,-5601,61,efd2fe00,0.0,0.0,0.0,0.0,0.0,0.0
2026-05-25 09:41:33.753562,1779716493.753562,1178986,-548676,164344524,77371,100284,7897,61,efd2fe00,0.0,0.0,0.0,0.0,0.0,0.0
2026-05-25 09:41:33.763449,1779716493.763449,1178986,-548676,164344524,77371,100284,7897,61,efd2fe00,0.0,0.0,0.0,0.0,0.0,0.0
2026-05-25 09:41:33.771189,1779716493.771189,1180935,-508534,164396954,70793,88532,-12398,61,efd2fe00,0.0,0.0,0.0,0.0,0.0,0.0
2026-05-25 09:41:33.781226,1779716493.781226,1180935,-508534,164396954,70793,88532,-12398,61,efd2fe00,0.0,0.0,0.0,0.0,0.0,0.0
2026-05-25 09:41:33.788954,1779716493.788954,1070384,-407448,164446823,70541,88585,-5042,61,efd2fe00,0.0,0.0,0.0,0.0,0.0,0.0
2026-05-25 09:41:33.797806,1779716493.797806,1070384,-407448,164446823,70541,88585,-5042,61,efd2fe00,0.0,0.0,0.0,0.0,0.0,0.0
2026-05-25 09:41:33.805482,1779716493.805482,1029864,-376425,164408759,53213,54328,-6371,61,efd2fe00,0.0,0.0,0.0,0.0,0.0,0.0
2026-05-25 09:41:33.818158,1779716493.818158,1029864,-376425,164408759,53213,54328,-6371,61,efd2fe00,0.0,0.0,0.0,0.0,0.0,0.0
2026-05-25 09:41:33.825387,1779716493.825387,1047882,-310067,164398019,44389,30849,6526,61,efd2fe00,0.0,0.0,0.0,0.0,0.0,0.0
2026-05-25 09:41:33.834502,1779716493.834502,1047882,-310067,164398019,44389,30849,6526,61,efd2fe00,0.0,0.0,0.0,0.0,0.0,0.0
2026-05-25 09:41:33.841458,1779716493.841458,1087441,-296820,164410868,30416,9676,-11311,61,efd2fe00,0.0,0.0,0.0,0.0,0.0,0.0
2026-05-25 09:41:33.850338,1779716493.850338,1087441,-296820,164410868,30416,9676,-11311,61,efd2fe00,0.0,0.0,0.0,0.0,0.0,0.0
2026-05-25 09:41:33.860046,1779716493.860046,1134169,-307560,164455201,39626,1921,-21059,61,efd2fe00,0.0,0.0,0.0,0.0,0.0,0.0
2026-05-25 09:41:33.877830,1779716493.877830,1134169,-307560,164455201,39626,1921,-21059,61,efd2fe00,0.0,0.0,0.0,0.0,0.0,0.0
2026-05-25 09:41:33.888921,1779716493.888921,1094635,-384357,164460021,49902,808,-31781,61,efd2fe00,0.0,0.0,0.0,0.0,0.0,0.0
2026-05-25 09:41:33.898127,1779716493.898127,1094635,-384357,164460021,49902,808,-31781,61,efd2fe00,0.0,0.0,0.0,0.0,0.0,0.0
2026-05-25 09:41:33.906564,1779716493.906564,1035784,-438209,164398842,62227,-21691,9800,61,efd2fe00,0.0,0.0,0.0,0.0,0.0,0.0
2026-05-25 09:41:33.916940,1779716493.916940,1035784,-438209,164398842,62227,-21691,9800,61,efd2fe00,0.0,0.0,0.0,0.0,0.0,0.0
2026-05-25 09:41:33.924634,1779716493.924634,974271,-573586,164416442,45046,-38600,6271,61,efd2fe00,0.0,0.0,0.0,0.0,0.0,0.0
2026-05-25 09:41:33.933059,1779716493.933059,974271,-573586,164416442,45046,-38600,6271,61,efd2fe00,0.0,0.0,0.0,0.0,0.0,0.0
2026-05-25 09:41:33.940268,1779716493.940268,1014211,-587292,164408691,37703,-59989,-7328,61,efd2fe00,0.0,0.0,0.0,0.0,0.0,0.0
2026-05-25 09:41:33.973498,1779716493.973498,1014211,-587292,164408691,37703,-59989,-7328,61,efd2fe00,0.0,0.0,0.0,0.0,0.0,0.0
2026-05-25 09:41:33.993341,1779716493.993341,1168362,-622644,164434882,38785,-65513,-39530,61,efd2fe00,0.0,0.0,0.0,0.0,0.0,0.0
2026-05-25 09:41:34.003017,1779716494.003017,1168362,-622644,164434882,38785,-65513,-39530,61,efd2fe00,0.0,0.0,0.0,0.0,0.0,0.0
2026-05-25 09:41:34.011039,1779716494.011039,1297028,-565052,164385219,53381,-52697,-17175,61,efd2fe00,0.0,0.0,0.0,0.0,0.0,0.0
2026-05-25 09:41:34.021922,1779716494.021922,1297028,-565052,164385219,53381,-52697,-17175,61,efd2fe00,0.0,0.0,0.0,0.0,0.0,0.0
2026-05-25 09:41:34.030398,1779716494.030398,1394130,-523613,164344959,48612,-46478,6717,61,efd2fe00,0.0,0.0,0.0,0.0,0.0,0.0
2026-05-25 09:41:34.042726,1779716494.042726,1394130,-523613,164344959,48612,-46478,6717,61,efd2fe00,0.0,0.0,0.0,0.0,0.0,0.0
2026-05-25 09:41:34.050690,1779716494.050690,1367431,-452022,164360265,68373,-15163,16069,61,efd2fe00,0.0,0.0,0.0,0.0,0.0,0.0
2026-05-25 09:41:34.060444,1779716494.060444,1367431,-452022,164360265,68373,-15163,16069,61,efd2fe00,0.0,0.0,0.0,0.0,0.0,0.0
2026-05-25 09:41:34.071391,1779716494.071391,1240053,-321729,164330607,53868,-1181,15337,61,efd2fe00,0.0,0.0,0.0,0.0,0.0,0.0
2026-05-25 09:41:34.081756,1779716494.081756,1240053,-321729,164330607,53868,-1181,15337,61,efd2fe00,0.0,0.0,0.0,0.0,0.0,0.0
2026-05-25 09:41:34.088606,1779716494.088606,1134826,-301201,164442180,84521,48905,27696,61,efd2fe00,0.0,0.0,0.0,0.0,0.0,0.0
2026-05-25 09:41:34.097892,1779716494.097892,1134826,-301201,164442180,84521,48905,27696,61,efd2fe00,0.0,0.0,0.0,0.0,0.0,0.0
2026-05-25 09:41:34.105533,1779716494.105533,1047173,-246672,164359559,56066,49830,12158,61,efd2fe00,0.0,0.0,0.0,0.0,0.0,0.0
2026-05-25 09:41:34.116535,1779716494.116535,1047173,-246672,164359559,56066,49830,12158,61,efd2fe00,0.0,0.0,0.0,0.0,0.0,0.0
2026-05-25 09:41:34.125436,1779716494.125436,1134736,-336881,164457647,50710,62881,14385,61,efd2fe00,0.0,0.0,0.0,0.0,0.0,0.0
2026-05-25 09:41:34.135780,1779716494.135780,1134736,-336881,164457647,50710,62881,14385,61,efd2fe00,0.0,0.0,0.0,0.0,0.0,0.0
2026-05-25 09:41:34.144097,1779716494.144097,1097100,-321917,164350388,40454,38812,-1843,61,efd2fe00,0.0,0.0,0.0,0.0,0.0,0.0
2026-05-25 09:41:34.154283,1779716494.154283,1097100,-321917,164350388,40454,38812,-1843,61,efd2fe00,0.0,0.0,0.0,0.0,0.0,0.0
2026-05-25 09:41:34.162703,1779716494.162703,1189171,-399559,164373315,36731,22088,14480,61,efd2fe00,0.0,0.0,0.0,0.0,0.0,0.0
2026-05-25 09:41:34.173258,1779716494.173258,1189171,-399559,164373315,36731,22088,14480,61,efd2fe00,0.0,0.0,0.0,0.0,0.0,0.0
2026-05-25 09:41:34.181466,1779716494.181466,1118742,-460504,164355525,44302,40273,18575,61,efd2fe00,0.0,0.0,0.0,0.0,0.0,0.0
2026-05-25 09:41:34.191947,1779716494.191947,1118742,-460504,164355525,44302,40273,18575,61,efd2fe00,0.0,0.0,0.0,0.0,0.0,0.0
2026-05-25 09:41:34.199403,1779716494.199403,1150056,-559589,164429586,37571,65053,8313,61,efd2fe00,0.0,0.0,0.0,0.0,0.0,0.0
2026-05-25 09:41:34.209288,1779716494.209288,1150056,-559589,164429586,37571,65053,8313,61,efd2fe00,0.0,0.0,0.0,0.0,0.0,0.0
2026-05-25 09:41:34.217023,1779716494.217023,984446,-576646,164438429,27085,81184,-6342,61,efd2fe00,0.0,0.0,0.0,0.0,0.0,0.0
2026-05-25 09:41:34.226526,1779716494.226526,984446,-576646,164438429,27085,81184,-6342,61,efd2fe00,0.0,0.0,0.0,0.0,0.0,0.0
2026-05-25 09:41:34.234447,1779716494.234447,943168,-580356,164422851,36685,61007,4420,61,efd2fe00,0.0,0.0,0.0,0.0,0.0,0.0
2026-05-25 09:41:34.243349,1779716494.243349,943168,-580356,164422851,36685,61007,4420,61,efd2fe00,0.0,0.0,0.0,0.0,0.0,0.0
2026-05-25 09:41:34.252395,1779716494.252395,926369,-563351,164388648,38271,25176,12645,61,efd2fe00,0.0,0.0,0.0,0.0,0.0,0.0
2026-05-25 09:41:34.263828,1779716494.263828,926369,-563351,164388648,38271,25176,12645,61,efd2fe00,0.0,0.0,0.0,0.0,0.0,0.0
2026-05-25 09:41:34.272745,1779716494.272745,992547,-447671,164403055,50636,-12788,-4661,61,efd2fe00,0.0,0.0,0.0,0.0,0.0,0.0
2026-05-25 09:41:34.284663,1779716494.284663,992547,-447671,164403055,50636,-12788,-4661,61,efd2fe00,0.0,0.0,0.0,0.0,0.0,0.0
2026-05-25 09:41:34.293427,1779716494.293427,1106331,-372248,164373045,53344,-55316,-7848,61,efd2fe00,0.0,0.0,0.0,0.0,0.0,0.0
2026-05-25 09:41:34.303314,1779716494.303314,1106331,-372248,164373045,53344,-55316,-7848,61,efd2fe00,0.0,0.0,0.0,0.0,0.0,0.0
2026-05-25 09:41:34.310798,1779716494.310798,1168496,-327033,164375815,59037,-86258,-7598,61,efd2fe00,0.0,0.0,0.0,0.0,0.0,0.0
2026-05-25 09:41:34.324027,1779716494.324027,1168496,-327033,164375815,59037,-86258,-7598,61,efd2fe00,0.0,0.0,0.0,0.0,0.0,0.0
2026-05-25 09:41:34.332881,1779716494.332881,1200661,-317848,164352867,68318,-84554,-1907,61,efd2fe00,0.0,0.0,0.0,0.0,0.0,0.0
2026-05-25 09:41:34.342117,1779716494.342117,1200661,-317848,164352867,68318,-84554,-1907,61,efd2fe00,0.0,0.0,0.0,0.0,0.0,0.0
2026-05-25 09:41:34.351941,1779716494.351941,1234907,-326811,164352421,54784,-39715,-2039,61,efd2fe00,0.0,0.0,0.0,0.0,0.0,0.0
2026-05-25 09:41:34.362398,1779716494.362398,1234907,-326811,164352421,54784,-39715,-2039,61,efd2fe00,0.0,0.0,0.0,0.0,0.0,0.0
2026-05-25 09:41:34.373372,1779716494.373372,1293493,-357982,164353059,34994,-21855,-17535,61,efd2fe00,0.0,0.0,0.0,0.0,0.0,0.0
2026-05-25 09:41:34.383762,1779716494.383762,1293493,-357982,164353059,34994,-21855,-17535,61,efd2fe00,0.0,0.0,0.0,0.0,0.0,0.0
2026-05-25 09:41:34.391427,1779716494.391427,1305066,-414771,164298024,16643,-4585,-5494,61,efd2fe00,0.0,0.0,0.0,0.0,0.0,0.0
2026-05-25 09:41:34.400894,1779716494.400894,1305066,-414771,164298024,16643,-4585,-5494,61,efd2fe00,0.0,0.0,0.0,0.0,0.0,0.0
2026-05-25 09:41:34.408677,1779716494.408677,1369240,-486416,164295551,4799,47784,-4355,61,efd2fe00,0.0,0.0,0.0,0.0,0.0,0.0
2026-05-25 09:41:34.418029,1779716494.418029,1369240,-486416,164295551,4799,47784,-4355,61,efd2fe00,0.0,0.0,0.0,0.0,0.0,0.0
2026-05-25 09:41:34.427100,1779716494.427100,1290374,-521995,164272344,-9808,126569,14038,61,efd2fe00,0.0,0.0,0.0,0.0,0.0,0.0
2026-05-25 09:41:34.436141,1779716494.436141,1290374,-521995,164272344,-9808,126569,14038,61,efd2fe00,0.0,0.0,0.0,0.0,0.0,0.0
2026-05-25 09:41:34.442983,1779716494.442983,1318861,-577121,164340739,4766,159455,-7998,61,efd2fe00,0.0,0.0,0.0,0.0,0.0,0.0
2026-05-25 09:41:34.461288,1779716494.461288,1318861,-577121,164340739,4766,159455,-7998,61,efd2fe00,0.0,0.0,0.0,0.0,0.0,0.0
2026-05-25 09:41:34.476331,1779716494.476331,1107663,-558826,164430308,34272,205997,8163,61,efd2fe00,0.0,0.0,0.0,0.0,0.0,0.0
2026-05-25 09:41:34.493056,1779716494.493056,1107663,-558826,164430308,34272,205997,8163,61,efd2fe00,0.0,0.0,0.0,0.0,0.0,0.0
2026-05-25 09:41:34.507056,1779716494.507056,954912,-492429,164498620,42466,141262,-6895,61,efd2fe00,0.0,0.0,0.0,0.0,0.0,0.0
2026-05-25 09:41:34.517904,1779716494.517904,954912,-492429,164498620,42466,141262,-6895,61,efd2fe00,0.0,0.0,0.0,0.0,0.0,0.0
2026-05-25 09:41:34.527318,1779716494.527318,866651,-506381,164549661,68214,119473,16442,61,efd2fe00,0.0,0.0,0.0,0.0,0.0,0.0
2026-05-25 09:41:34.539060,1779716494.539060,866651,-506381,164549661,68214,119473,16442,61,efd2fe00,0.0,0.0,0.0,0.0,0.0,0.0
2026-05-25 09:41:34.550887,1779716494.550887,858915,-443478,164514243,56301,44661,-18001,61,efd2fe00,0.0,0.0,0.0,0.0,0.0,0.0
2026-05-25 09:41:34.559746,1779716494.559746,858915,-443478,164514243,56301,44661,-18001,61,efd2fe00,0.0,0.0,0.0,0.0,0.0,0.0
2026-05-25 09:41:34.568073,1779716494.568073,1001794,-448911,164459125,37107,-13728,-12567,61,efd2fe00,0.0,0.0,0.0,0.0,0.0,0.0
2026-05-25 09:41:34.584420,1779716494.584420,1001794,-448911,164459125,37107,-13728,-12567,61,efd2fe00,0.0,0.0,0.0,0.0,0.0,0.0
2026-05-25 09:41:34.593148,1779716494.593148,1078492,-432263,164382344,29692,-63022,-10819,61,efd2fe00,0.0,0.0,0.0,0.0,0.0,0.0
2026-05-25 09:41:34.605688,1779716494.605688,1078492,-432263,164382344,29692,-63022,-10819,61,efd2fe00,0.0,0.0,0.0,0.0,0.0,0.0
2026-05-25 09:41:34.613503,1779716494.613503,1282901,-446726,164359209,28493,-61769,-130,61,efd2fe00,0.0,0.0,0.0,0.0,0.0,0.0
2026-05-25 09:41:34.622279,1779716494.622279,1282901,-446726,164359209,28493,-61769,-130,61,efd2fe00,0.0,0.0,0.0,0.0,0.0,0.0
2026-05-25 09:41:34.635130,1779716494.635130,1353013,-446014,164319764,25126,-33356,-10069,61,efd2fe00,0.0,0.0,0.0,0.0,0.0,0.0
2026-05-25 09:41:34.652589,1779716494.652589,1353013,-446014,164319764,25126,-33356,-10069,61,efd2fe00,0.0,0.0,0.0,0.0,0.0,0.0
2026-05-25 09:41:34.667757,1779716494.667757,1445665,-456916,164330788,33855,53883,-46165,61,efd2fe00,0.0,0.0,0.0,0.0,0.0,0.0
2026-05-25 09:41:34.685986,1779716494.685986,1445665,-456916,164330788,33855,53883,-46165,61,efd2fe00,0.0,0.0,0.0,0.0,0.0,0.0
2026-05-25 09:41:34.700123,1779716494.700123,1289184,-438734,164344662,38242,84161,-54356,61,efd2fe00,0.0,0.0,0.0,0.0,0.0,0.0
2026-05-25 09:41:34.718392,1779716494.718392,1289184,-438734,164344662,38242,84161,-54356,61,efd2fe00,0.0,0.0,0.0,0.0,0.0,0.0
2026-05-25 09:41:34.733013,1779716494.733013,1162697,-417071,164381187,60022,78479,-52841,61,efd2fe00,0.0,0.0,0.0,0.0,0.0,0.0
2026-05-25 09:41:34.747499,1779716494.747499,1162697,-417071,164381187,60022,78479,-52841,61,efd2fe00,0.0,0.0,0.0,0.0,0.0,0.0
2026-05-25 09:41:34.755395,1779716494.755395,1020383,-336369,164410640,78657,57237,-3695,61,efd3fe00,0.0,0.0,0.0,0.0,0.0,0.0
2026-05-25 09:41:34.765122,1779716494.765122,1020383,-336369,164410640,78657,57237,-3695,61,efd3fe00,0.0,0.0,0.0,0.0,0.0,0.0
2026-05-25 09:41:34.773415,1779716494.773415,934122,-269939,164431006,50271,-10422,30005,61,efd3fe00,0.0,0.0,0.0,0.0,0.0,0.0
2026-05-25 09:41:34.783053,1779716494.783053,934122,-269939,164431006,50271,-10422,30005,61,efd3fe00,0.0,0.0,0.0,0.0,0.0,0.0
2026-05-25 09:41:34.797369,1779716494.797369,970469,-282593,164414257,37381,-49217,33474,61,efd2fe00,0.0,0.0,0.0,0.0,0.0,0.0
2026-05-25 09:41:34.812320,1779716494.812320,970469,-282593,164414257,37381,-49217,33474,61,efd2fe00,0.0,0.0,0.0,0.0,0.0,0.0
2026-05-25 09:41:34.822826,1779716494.822826,1025306,-343599,164406592,-4386,-108691,10235,61,efd2fe00,0.0,0.0,0.0,0.0,0.0,0.0
2026-05-25 09:41:34.834812,1779716494.834812,1025306,-343599,164406592,-4386,-108691,10235,61,efd2fe00,0.0,0.0,0.0,0.0,0.0,0.0
2026-05-25 09:41:34.842571,1779716494.842571,1187267,-435378,164344696,-16176,-96014,-15314,61,efd2fe00,0.0,0.0,0.0,0.0,0.0,0.0
2026-05-25 09:41:34.854943,1779716494.854943,1187267,-435378,164344696,-16176,-96014,-15314,61,efd2fe00,0.0,0.0,0.0,0.0,0.0,0.0
2026-05-25 09:41:34.862846,1779716494.862846,1363908,-516328,164371437,-14902,-50022,-37296,61,efd2fe00,0.0,0.0,0.0,0.0,0.0,0.0
2026-05-25 09:41:34.872396,1779716494.872396,1363908,-516328,164371437,-14902,-50022,-37296,61,efd2fe00,0.0,0.0,0.0,0.0,0.0,0.0
2026-05-25 09:41:34.880080,1779716494.880080,1463149,-599729,164318903,12717,19723,-61817,61,efd2fe00,0.0,0.0,0.0,0.0,0.0,0.0
2026-05-25 09:41:34.890289,1779716494.890289,1463149,-599729,164318903,12717,19723,-61817,61,efd2fe00,0.0,0.0,0.0,0.0,0.0,0.0
2026-05-25 09:41:34.898246,1779716494.898246,1464094,-599201,164310380,37741,82416,-51975,61,efd2fe00,0.0,0.0,0.0,0.0,0.0,0.0
2026-05-25 09:41:34.906952,1779716494.906952,1464094,-599201,164310380,37741,82416,-51975,61,efd2fe00,0.0,0.0,0.0,0.0,0.0,0.0
2026-05-25 09:41:34.917501,1779716494.917501,1336228,-549394,164285332,81067,136676,-38814,61,efd2fe00,0.0,0.0,0.0,0.0,0.0,0.0
2026-05-25 09:41:34.925992,1779716494.925992,1336228,-549394,164285332,81067,136676,-38814,61,efd2fe00,0.0,0.0,0.0,0.0,0.0,0.0
2026-05-25 09:41:34.933260,1779716494.933260,1156365,-463299,164353573,106534,172844,-15618,61,efd2fe00,0.0,0.0,0.0,0.0,0.0,0.0
2026-05-25 09:41:34.942702,1779716494.942702,1156365,-463299,164353573,106534,172844,-15618,61,efd2fe00,0.0,0.0,0.0,0.0,0.0,0.0
2026-05-25 09:41:34.957167,1779716494.957167,999476,-390807,164402376,88801,169179,-21317,61,efd2fe00,0.0,0.0,0.0,0.0,0.0,0.0
2026-05-25 09:41:34.975683,1779716494.975683,999476,-390807,164402376,88801,169179,-21317,61,efd2fe00,0.0,0.0,0.0,0.0,0.0,0.0
2026-05-25 09:41:34.991189,1779716494.991189,883106,-327912,164480013,74740,150075,-14211,61,efd2fe00,0.0,0.0,0.0,0.0,0.0,0.0
2026-05-25 09:41:35.005723,1779716495.005723,883106,-327912,164480013,74740,150075,-14211,61,efd2fe00,0.0,0.0,0.0,0.0,0.0,0.0
2026-05-25 09:41:35.013619,1779716495.013619,911394,-277267,164446641,34436,91352,-31688,61,efd2fe00,0.0,0.0,0.0,0.0,0.0,0.0
2026-05-25 09:41:35.022500,1779716495.022500,911394,-277267,164446641,34436,91352,-31688,61,efd2fe00,0.0,0.0,0.0,0.0,0.0,0.0
2026-05-25 09:41:35.029507,1779716495.029507,970782,-288890,164430527,45542,13514,-21459,61,efd2fe00,0.0,0.0,0.0,0.0,0.0,0.0
2026-05-25 09:41:35.038837,1779716495.038837,970782,-288890,164430527,45542,13514,-21459,61,efd2fe00,0.0,0.0,0.0,0.0,0.0,0.0
2026-05-25 09:41:35.055181,1779716495.055181,1089231,-358110,164366146,23344,-25318,-6031,61,efd2fe00,0.0,0.0,0.0,0.0,0.0,0.0
2026-05-25 09:41:35.063943,1779716495.063943,1089231,-358110,164366146,23344,-25318,-6031,61,efd2fe00,0.0,0.0,0.0,0.0,0.0,0.0
2026-05-25 09:41:35.077987,1779716495.077987,1219062,-453562,164326709,5354,-71948,8214,61,efd2fe00,0.0,0.0,0.0,0.0,0.0,0.0
2026-05-25 09:41:35.088679,1779716495.088679,1219062,-453562,164326709,5354,-71948,8214,61,efd2fe00,0.0,0.0,0.0,0.0,0.0,0.0
2026-05-25 09:41:35.098532,1779716495.098532,1286643,-499859,164324016,11193,-39229,2087,61,efd2fe00,0.0,0.0,0.0,0.0,0.0,0.0
2026-05-25 09:41:35.110606,1779716495.110606,1286643,-499859,164324016,11193,-39229,2087,61,efd2fe00,0.0,0.0,0.0,0.0,0.0,0.0
2026-05-25 09:41:35.119125,1779716495.119125,1324446,-475392,164302319,37319,-31247,1214,61,efd2fe00,0.0,0.0,0.0,0.0,0.0,0.0
2026-05-25 09:41:35.130944,1779716495.130944,1324446,-475392,164302319,37319,-31247,1214,61,efd2fe00,0.0,0.0,0.0,0.0,0.0,0.0
2026-05-25 09:41:35.139370,1779716495.139370,1242424,-436521,164304321,64341,4342,-460,61,efd2fe00,0.0,0.0,0.0,0.0,0.0,0.0
2026-05-25 09:41:35.150759,1779716495.150759,1242424,-436521,164304321,64341,4342,-460,61,efd2fe00,0.0,0.0,0.0,0.0,0.0,0.0
2026-05-25 09:41:35.159527,1779716495.159527,1159475,-415013,164334605,58360,32679,15042,61,efd2fe00,0.0,0.0,0.0,0.0,0.0,0.0
2026-05-25 09:41:35.168424,1779716495.168424,1159475,-415013,164334605,58360,32679,15042,61,efd2fe00,0.0,0.0,0.0,0.0,0.0,0.0
2026-05-25 09:41:35.176248,1779716495.176248,1095046,-427056,164361725,56155,44843,-236,61,efd2fe00,0.0,0.0,0.0,0.0,0.0,0.0
2026-05-25 09:41:35.185170,1779716495.185170,1095046,-427056,164361725,56155,44843,-236,61,efd2fe00,0.0,0.0,0.0,0.0,0.0,0.0
2026-05-25 09:41:35.192893,1779716495.192893,1120541,-412091,164417240,83910,28141,-1789,61,efd2fe00,0.0,0.0,0.0,0.0,0.0,0.0
2026-05-25 09:41:35.204512,1779716495.204512,1120541,-412091,164417240,83910,28141,-1789,61,efd2fe00,0.0,0.0,0.0,0.0,0.0,0.0
2026-05-25 09:41:35.212564,1779716495.212564,1128953,-425655,164405145,76082,-560,-8761,61,efd2fe00,0.0,0.0,0.0,0.0,0.0,0.0
2026-05-25 09:41:35.222673,1779716495.222673,1128953,-425655,164405145,76082,-560,-8761,61,efd2fe00,0.0,0.0,0.0,0.0,0.0,0.0
2026-05-25 09:41:35.230479,1779716495.230479,1121009,-384486,164429565,61508,-10037,-7564,61,efd2fe00,0.0,0.0,0.0,0.0,0.0,0.0
2026-05-25 09:41:35.239827,1779716495.239827,1121009,-384486,164429565,61508,-10037,-7564,61,efd2fe00,0.0,0.0,0.0,0.0,0.0,0.0
2026-05-25 09:41:35.251901,1779716495.251901,1100841,-404612,164480490,37511,21962,12848,61,efd2fe00,0.0,0.0,0.0,0.0,0.0,0.0
2026-05-25 09:41:35.269148,1779716495.269148,1100841,-404612,164480490,37511,21962,12848,61,efd2fe00,0.0,0.0,0.0,0.0,0.0,0.0
2026-05-25 09:41:35.283090,1779716495.283090,1133891,-407587,164417929,26177,35040,6658,61,efd2fe00,0.0,0.0,0.0,0.0,0.0,0.0
2026-05-25 09:41:35.300304,1779716495.300304,1133891,-407587,164417929,26177,35040,6658,61,efd2fe00,0.0,0.0,0.0,0.0,0.0,0.0
2026-05-25 09:41:35.313755,1779716495.313755,1222047,-466658,164379278,15405,60010,18281,61,efd2fe00,0.0,0.0,0.0,0.0,0.0,0.0
2026-05-25 09:41:35.331093,1779716495.331093,1222047,-466658,164379278,15405,60010,18281,61,efd2fe00,0.0,0.0,0.0,0.0,0.0,0.0
2026-05-25 09:41:35.345142,1779716495.345142,1273231,-506598,164307033,-6051,70009,-15765,61,efd2fe00,0.0,0.0,0.0,0.0,0.0,0.0
2026-05-25 09:41:35.362325,1779716495.362325,1273231,-506598,164307033,-6051,70009,-15765,61,efd2fe00,0.0,0.0,0.0,0.0,0.0,0.0
2026-05-25 09:41:35.376585,1779716495.376585,1287301,-494740,164315001,-4836,73609,-18881,61,efd2fe00,0.0,0.0,0.0,0.0,0.0,0.0
2026-05-25 09:41:35.389471,1779716495.389471,1287301,-494740,164315001,-4836,73609,-18881,61,efd2fe00,0.0,0.0,0.0,0.0,0.0,0.0
2026-05-25 09:41:35.403393,1779716495.403393,1259975,-434133,164388415,15784,117538,-18379,61,efd2fe00,0.0,0.0,0.0,0.0,0.0,0.0
2026-05-25 09:41:35.420041,1779716495.420041,1259975,-434133,164388415,15784,117538,-18379,61,efd2fe00,0.0,0.0,0.0,0.0,0.0,0.0
2026-05-25 09:41:35.432568,1779716495.432568,1174649,-367696,164395748,33903,133450,-14449,61,efd2fe00,0.0,0.0,0.0,0.0,0.0,0.0
2026-05-25 09:41:35.441740,1779716495.441740,1174649,-367696,164395748,33903,133450,-14449,61,efd2fe00,0.0,0.0,0.0,0.0,0.0,0.0
2026-05-25 09:41:35.448564,1779716495.448564,1090712,-363909,164475610,46174,119561,947,61,efd2fe00,0.0,0.0,0.0,0.0,0.0,0.0
2026-05-25 09:41:35.456718,1779716495.456718,1090712,-363909,164475610,46174,119561,947,61,efd2fe00,0.0,0.0,0.0,0.0,0.0,0.0
2026-05-25 09:41:35.463684,1779716495.463684,935278,-396202,164438022,38280,78503,-3842,61,efd2fe00,0.0,0.0,0.0,0.0,0.0,0.0
2026-05-25 09:41:35.472854,1779716495.472854,935278,-396202,164438022,38280,78503,-3842,61,efd2fe00,0.0,0.0,0.0,0.0,0.0,0.0
2026-05-25 09:41:35.479707,1779716495.479707,941228,-413929,164467772,39451,-8773,-16531,61,efd2fe00,0.0,0.0,0.0,0.0,0.0,0.0
2026-05-25 09:41:35.496311,1779716495.496311,941228,-413929,164467772,39451,-8773,-16531,61,efd2fe00,0.0,0.0,0.0,0.0,0.0,0.0
2026-05-25 09:41:35.510300,1779716495.510300,997847,-399736,164466504,37793,-49241,-29525,61,efd2fe00,0.0,0.0,0.0,0.0,0.0,0.0
2026-05-25 09:41:35.527136,1779716495.527136,997847,-399736,164466504,37793,-49241,-29525,61,efd2fe00,0.0,0.0,0.0,0.0,0.0,0.0
2026-05-25 09:41:35.541053,1779716495.541053,1096317,-426150,164399049,8013,-88227,-26570,61,efd2fe00,0.0,0.0,0.0,0.0,0.0,0.0
2026-05-25 09:41:35.558129,1779716495.558129,1096317,-426150,164399049,8013,-88227,-26570,61,efd2fe00,0.0,0.0,0.0,0.0,0.0,0.0
2026-05-25 09:41:35.571673,1779716495.571673,1223381,-434321,164352277,15327,-57818,-32623,61,efd2fe00,0.0,0.0,0.0,0.0,0.0,0.0
2026-05-25 09:41:35.581438,1779716495.581438,1223381,-434321,164352277,15327,-57818,-32623,61,efd2fe00,0.0,0.0,0.0,0.0,0.0,0.0
2026-05-25 09:41:35.589124,1779716495.589124,1243598,-430353,164252967,16544,-27954,-17669,61,efd2fe00,0.0,0.0,0.0,0.0,0.0,0.0
2026-05-25 09:41:35.606419,1779716495.606419,1243598,-430353,164252967,16544,-27954,-17669,61,efd2fe00,0.0,0.0,0.0,0.0,0.0,0.0
2026-05-25 09:41:35.621926,1779716495.621926,1280352,-422485,164296637,31785,16275,-13443,61,efd2fe00,0.0,0.0,0.0,0.0,0.0,0.0
2026-05-25 09:41:35.639492,1779716495.639492,1280352,-422485,164296637,31785,16275,-13443,61,efd2fe00,0.0,0.0,0.0,0.0,0.0,0.0
2026-05-25 09:41:35.653459,1779716495.653459,1312348,-405295,164338594,50446,47990,-1260,61,efd2fe00,0.0,0.0,0.0,0.0,0.0,0.0
2026-05-25 09:41:35.670921,1779716495.670921,1312348,-405295,164338594,50446,47990,-1260,61,efd2fe00,0.0,0.0,0.0,0.0,0.0,0.0
2026-05-25 09:41:35.682800,1779716495.682800,1260171,-387747,164368210,45312,52629,83,61,efd2fe00,0.0,0.0,0.0,0.0,0.0,0.0
2026-05-25 09:41:35.691841,1779716495.691841,1260171,-387747,164368210,45312,52629,83,61,efd2fe00,0.0,0.0,0.0,0.0,0.0,0.0
2026-05-25 09:41:35.727878,1779716495.727878,1240823,-379351,164375340,61982,39922,11714,61,efd2fe00,0.0,0.0,0.0,0.0,0.0,0.0
2026-05-25 09:41:35.737783,1779716495.737783,1240823,-379351,164375340,61982,39922,11714,61,efd2fe00,0.0,0.0,0.0,0.0,0.0,0.0
2026-05-25 09:41:35.745266,1779716495.745266,1152472,-383568,164378045,43656,47737,-10839,61,efd2fe00,0.0,0.0,0.0,0.0,0.0,0.0
2026-05-25 09:41:35.754702,1779716495.754702,1152472,-383568,164378045,43656,47737,-10839,61,efd2fe00,0.0,0.0,0.0,0.0,0.0,0.0
2026-05-25 09:41:35.763589,1779716495.763589,1116926,-415066,164345098,35419,60299,-13753,61,efd2fe00,0.0,0.0,0.0,0.0,0.0,0.0
2026-05-25 09:41:35.772986,1779716495.772986,1116926,-415066,164345098,35419,60299,-13753,61,efd2fe00,0.0,0.0,0.0,0.0,0.0,0.0
2026-05-25 09:41:35.785749,1779716495.785749,1131986,-491987,164359657,35230,79890,-19238,61,efd2fe00,0.0,0.0,0.0,0.0,0.0,0.0
2026-05-25 09:41:35.796190,1779716495.796190,1131986,-491987,164359657,35230,79890,-19238,61,efd2fe00,0.0,0.0,0.0,0.0,0.0,0.0
2026-05-25 09:41:35.809576,1779716495.809576,1144478,-502947,164321239,53724,71494,-3564,61,efd2fe00,0.0,0.0,0.0,0.0,0.0,0.0
2026-05-25 09:41:35.827170,1779716495.827170,1144478,-502947,164321239,53724,71494,-3564,61,efd2fe00,0.0,0.0,0.0,0.0,0.0,0.0
2026-05-25 09:41:35.841330,1779716495.841330,1211136,-548879,164363898,53885,69604,-13752,61,efd2fe00,0.0,0.0,0.0,0.0,0.0,0.0
2026-05-25 09:41:35.859566,1779716495.859566,1211136,-548879,164363898,53885,69604,-13752,61,efd2fe00,0.0,0.0,0.0,0.0,0.0,0.0
2026-05-25 09:41:35.867714,1779716495.867714,1164596,-482008,164330693,43287,56141,-23107,61,efd2fe00,0.0,0.0,0.0,0.0,0.0,0.0
2026-05-25 09:41:35.877349,1779716495.877349,1164596,-482008,164330693,43287,56141,-23107,61,efd2fe00,0.0,0.0,0.0,0.0,0.0,0.0
2026-05-25 09:41:35.885438,1779716495.885438,1184857,-454233,164381752,23306,41391,-42082,61,efd2fe00,0.0,0.0,0.0,0.0,0.0,0.0
2026-05-25 09:41:35.894578,1779716495.894578,1184857,-454233,164381752,23306,41391,-42082,61,efd2fe00,0.0,0.0,0.0,0.0,0.0,0.0
2026-05-25 09:41:35.907430,1779716495.907430,1142233,-371602,164352816,23376,17069,-33346,61,efd2fe00,0.0,0.0,0.0,0.0,0.0,0.0
2026-05-25 09:41:35.925185,1779716495.925185,1142233,-371602,164352816,23376,17069,-33346,61,efd2fe00,0.0,0.0,0.0,0.0,0.0,0.0
2026-05-25 09:41:35.938797,1779716495.938797,1102985,-281714,164395781,46277,13126,1637,61,efd2fe00,0.0,0.0,0.0,0.0,0.0,0.0
2026-05-25 09:41:35.955354,1779716495.955354,1102985,-281714,164395781,46277,13126,1637,61,efd2fe00,0.0,0.0,0.0,0.0,0.0,0.0
2026-05-25 09:41:35.966463,1779716495.966463,1102985,-281714,164395781,46277,13126,1637,61,efd2fe00,0.0,0.0,0.0,0.0,0.0,0.0
2026-05-25 09:41:35.973820,1779716495.973820,1020827,-268466,164334350,24280,9356,9461,61,efd2fe00,0.0,0.0,0.0,0.0,0.0,0.0
2026-05-25 09:41:35.985096,1779716495.985096,1032324,-293134,164339254,26968,20609,5390,61,efd2fe00,0.0,0.0,0.0,0.0,0.0,0.0
2026-05-25 09:41:35.994587,1779716495.994587,1032324,-293134,164339254,26968,20609,5390,61,efd2fe00,0.0,0.0,0.0,0.0,0.0,0.0
2026-05-25 09:41:36.002230,1779716496.002230,1076449,-434265,164378593,8586,1743,-16962,61,efd2fe00,0.0,0.0,0.0,0.0,0.0,0.0
2026-05-25 09:41:36.011025,1779716496.011025,1076449,-434265,164378593,8586,1743,-16962,61,efd2fe00,0.0,0.0,0.0,0.0,0.0,0.0
2026-05-25 09:41:36.017865,1779716496.017865,1184038,-535342,164401896,8002,14073,-22844,61,efd2fe00,0.0,0.0,0.0,0.0,0.0,0.0
2026-05-25 09:41:36.028027,1779716496.028027,1184038,-535342,164401896,8002,14073,-22844,61,efd2fe00,0.0,0.0,0.0,0.0,0.0,0.0
2026-05-25 09:41:36.035257,1779716496.035257,1214377,-577211,164405919,29504,49970,-14769,61,efd2fe00,0.0,0.0,0.0,0.0,0.0,0.0
2026-05-25 09:41:36.043400,1779716496.043400,1214377,-577211,164405919,29504,49970,-14769,61,efd2fe00,0.0,0.0,0.0,0.0,0.0,0.0
2026-05-25 09:41:36.067690,1779716496.067690,1199895,-547214,164410309,68216,75939,-15931,61,efd2fe00,0.0,0.0,0.0,0.0,0.0,0.0
2026-05-25 09:41:36.078030,1779716496.078030,1199895,-547214,164410309,68216,75939,-15931,61,efd2fe00,0.0,0.0,0.0,0.0,0.0,0.0
2026-05-25 09:41:36.085744,1779716496.085744,1096847,-484780,164384905,88043,77445,6261,61,efd2fe00,0.0,0.0,0.0,0.0,0.0,0.0
2026-05-25 09:41:36.095006,1779716496.095006,1096847,-484780,164384905,88043,77445,6261,61,efd2fe00,0.0,0.0,0.0,0.0,0.0,0.0
2026-05-25 09:41:36.102981,1779716496.102981,1009512,-496535,164397109,61985,34768,-17447,61,efd2fe00,0.0,0.0,0.0,0.0,0.0,0.0
2026-05-25 09:41:36.112712,1779716496.112712,1009512,-496535,164397109,61985,34768,-17447,61,efd2fe00,0.0,0.0,0.0,0.0,0.0,0.0
2026-05-25 09:41:36.121247,1779716496.121247,953899,-478449,164397434,42693,-10852,-12428,61,efd2fe00,0.0,0.0,0.0,0.0,0.0,0.0
2026-05-25 09:41:36.134323,1779716496.134323,953899,-478449,164397434,42693,-10852,-12428,61,efd2fe00,0.0,0.0,0.0,0.0,0.0,0.0
2026-05-25 09:41:36.148863,1779716496.148863,1005036,-480000,164382385,14762,-33946,-48729,61,efd2fe00,0.0,0.0,0.0,0.0,0.0,0.0
2026-05-25 09:41:36.166698,1779716496.166698,1005036,-480000,164382385,14762,-33946,-48729,61,efd2fe00,0.0,0.0,0.0,0.0,0.0,0.0
2026-05-25 09:41:36.174910,1779716496.174910,1147140,-462002,164372662,33324,-10834,-48186,61,efd2fe00,0.0,0.0,0.0,0.0,0.0,0.0
2026-05-25 09:41:36.184176,1779716496.184176,1147140,-462002,164372662,33324,-10834,-48186,61,efd2fe00,0.0,0.0,0.0,0.0,0.0,0.0
2026-05-25 09:41:36.193072,1779716496.193072,1283104,-442629,164357962,30418,12297,-54212,61,efd2fe00,0.0,0.0,0.0,0.0,0.0,0.0
2026-05-25 09:41:36.201840,1779716496.201840,1283104,-442629,164357962,30418,12297,-54212,61,efd2fe00,0.0,0.0,0.0,0.0,0.0,0.0
2026-05-25 09:41:36.208771,1779716496.208771,1386352,-433595,164384252,60202,61157,-28100,61,efd2fe00,0.0,0.0,0.0,0.0,0.0,0.0
2026-05-25 09:41:36.240800,1779716496.240800,1386352,-433595,164384252,60202,61157,-28100,61,efd2fe00,0.0,0.0,0.0,0.0,0.0,0.0
2026-05-25 09:41:36.260124,1779716496.260124,1335503,-322296,164344641,65573,105301,-9590,61,efd2fe00,0.0,0.0,0.0,0.0,0.0,0.0
2026-05-25 09:41:36.268625,1779716496.268625,1335503,-322296,164344641,65573,105301,-9590,61,efd2fe00,0.0,0.0,0.0,0.0,0.0,0.0
2026-05-25 09:41:36.278239,1779716496.278239,1268215,-293285,164390895,73464,148600,-3602,61,efd2fe00,0.0,0.0,0.0,0.0,0.0,0.0
2026-05-25 09:41:36.288613,1779716496.288613,1268215,-293285,164390895,73464,148600,-3602,61,efd2fe00,0.0,0.0,0.0,0.0,0.0,0.0
2026-05-25 09:41:36.296353,1779716496.296353,1136625,-239108,164396691,43759,145611,22681,61,efd2fe00,0.0,0.0,0.0,0.0,0.0,0.0
2026-05-25 09:41:36.305900,1779716496.305900,1136625,-239108,164396691,43759,145611,22681,61,efd2fe00,0.0,0.0,0.0,0.0,0.0,0.0
2026-05-25 09:41:36.317095,1779716496.317095,1136625,-239108,164396691,43759,145611,22681,61,efd2fe00,0.0,0.0,0.0,0.0,0.0,0.0
2026-05-25 09:41:36.323619,1779716496.323619,1031143,-347608,164485973,28698,97580,11839,61,efd2fe00,0.0,0.0,0.0,0.0,0.0,0.0
2026-05-25 09:41:36.332606,1779716496.332606,992726,-404810,164494330,12800,49933,7642,61,efd2fe00,0.0,0.0,0.0,0.0,0.0,0.0
2026-05-25 09:41:36.342036,1779716496.342036,992726,-404810,164494330,12800,49933,7642,61,efd2fe00,0.0,0.0,0.0,0.0,0.0,0.0
2026-05-25 09:41:36.350020,1779716496.350020,978559,-489681,164501757,3705,12931,-13895,61,efd1fe00,0.0,0.0,0.0,0.0,0.0,0.0
2026-05-25 09:41:36.359577,1779716496.359577,978559,-489681,164501757,3705,12931,-13895,61,efd1fe00,0.0,0.0,0.0,0.0,0.0,0.0
2026-05-25 09:41:36.366688,1779716496.366688,998692,-532793,164465994,8698,-16765,686,61,efd1fe00,0.0,0.0,0.0,0.0,0.0,0.0
2026-05-25 09:41:36.376318,1779716496.376318,998692,-532793,164465994,8698,-16765,686,61,efd1fe00,0.0,0.0,0.0,0.0,0.0,0.0
2026-05-25 09:41:36.384241,1779716496.384241,1052278,-539207,164418102,-11792,-30420,19240,61,efd1fe00,0.0,0.0,0.0,0.0,0.0,0.0
2026-05-25 09:41:36.393612,1779716496.393612,1052278,-539207,164418102,-11792,-30420,19240,61,efd1fe00,0.0,0.0,0.0,0.0,0.0,0.0
2026-05-25 09:41:36.402438,1779716496.402438,1125170,-565165,164401891,1165,-25096,7990,61,efd1fe00,0.0,0.0,0.0,0.0,0.0,0.0
2026-05-25 09:41:36.410867,1779716496.410867,1125170,-565165,164401891,1165,-25096,7990,61,efd1fe00,0.0,0.0,0.0,0.0,0.0,0.0
2026-05-25 09:41:36.418110,1779716496.418110,1199082,-506851,164386084,13439,-35067,-10818,61,efd1fe00,0.0,0.0,0.0,0.0,0.0,0.0
2026-05-25 09:41:36.428331,1779716496.428331,1199082,-506851,164386084,13439,-35067,-10818,61,efd1fe00,0.0,0.0,0.0,0.0,0.0,0.0
2026-05-25 09:41:36.435498,1779716496.435498,1280195,-511163,164403193,38256,-22663,-19051,61,efd1fe00,0.0,0.0,0.0,0.0,0.0,0.0
2026-05-25 09:41:36.443843,1779716496.443843,1280195,-511163,164403193,38256,-22663,-19051,61,efd1fe00,0.0,0.0,0.0,0.0,0.0,0.0
2026-05-25 09:41:36.451001,1779716496.451001,1274962,-418718,164371827,31161,-1811,-24156,61,efd1fe00,0.0,0.0,0.0,0.0,0.0,0.0
2026-05-25 09:41:36.459901,1779716496.459901,1274962,-418718,164371827,31161,-1811,-24156,61,efd1fe00,0.0,0.0,0.0,0.0,0.0,0.0
2026-05-25 09:41:36.467174,1779716496.467174,1213901,-351465,164317405,28337,32592,-8599,61,efd1fe00,0.0,0.0,0.0,0.0,0.0,0.0
2026-05-25 09:41:36.476396,1779716496.476396,1213901,-351465,164317405,28337,32592,-8599,61,efd1fe00,0.0,0.0,0.0,0.0,0.0,0.0
2026-05-25 09:41:36.483550,1779716496.483550,1155076,-311217,164315781,22414,82165,-27070,61,efd1fe00,0.0,0.0,0.0,0.0,0.0,0.0
2026-05-25 09:41:36.492627,1779716496.492627,1155076,-311217,164315781,22414,82165,-27070,61,efd1fe00,0.0,0.0,0.0,0.0,0.0,0.0
2026-05-25 09:41:36.499570,1779716496.499570,1099942,-311713,164330849,39891,76149,-11606,61,efd1fe00,0.0,0.0,0.0,0.0,0.0,0.0
2026-05-25 09:41:36.507987,1779716496.507987,1099942,-311713,164330849,39891,76149,-11606,61,efd1fe00,0.0,0.0,0.0,0.0,0.0,0.0
2026-05-25 09:41:36.515227,1779716496.515227,1104951,-335855,164408945,37637,77700,347,61,efd1fe00,0.0,0.0,0.0,0.0,0.0,0.0
2026-05-25 09:41:36.524301,1779716496.524301,1104951,-335855,164408945,37637,77700,347,61,efd1fe00,0.0,0.0,0.0,0.0,0.0,0.0
2026-05-25 09:41:36.531479,1779716496.531479,1081116,-414757,164426456,35504,48338,-1258,61,efd1fe00,0.0,0.0,0.0,0.0,0.0,0.0
2026-05-25 09:41:36.539688,1779716496.539688,1081116,-414757,164426456,35504,48338,-1258,61,efd1fe00,0.0,0.0,0.0,0.0,0.0,0.0
2026-05-25 09:41:36.547612,1779716496.547612,1087250,-436801,164428635,33344,54804,-8893,61,efd1fe00,0.0,0.0,0.0,0.0,0.0,0.0
2026-05-25 09:41:36.555776,1779716496.555776,1087250,-436801,164428635,33344,54804,-8893,61,efd1fe00,0.0,0.0,0.0,0.0,0.0,0.0
2026-05-25 09:41:36.562680,1779716496.562680,1125441,-504781,164423299,45025,24218,-4232,61,efd1fe00,0.0,0.0,0.0,0.0,0.0,0.0
2026-05-25 09:41:36.570563,1779716496.570563,1125441,-504781,164423299,45025,24218,-4232,61,efd1fe00,0.0,0.0,0.0,0.0,0.0,0.0
2026-05-25 09:41:36.577912,1779716496.577912,1121136,-525537,164400484,53129,37017,-4941,61,efd1fe00,0.0,0.0,0.0,0.0,0.0,0.0
2026-05-25 09:41:36.586965,1779716496.586965,1121136,-525537,164400484,53129,37017,-4941,61,efd1fe00,0.0,0.0,0.0,0.0,0.0,0.0
2026-05-25 09:41:36.594226,1779716496.594226,1105178,-600007,164417462,54481,39926,4909,61,efd2fe00,0.0,0.0,0.0,0.0,0.0,0.0
2026-05-25 09:41:36.603048,1779716496.603048,1105178,-600007,164417462,54481,39926,4909,61,efd2fe00,0.0,0.0,0.0,0.0,0.0,0.0
2026-05-25 09:41:36.609599,1779716496.609599,1057068,-566285,164406000,43328,55172,-10083,61,efd1fe00,0.0,0.0,0.0,0.0,0.0,0.0
2026-05-25 09:41:36.617705,1779716496.617705,1057068,-566285,164406000,43328,55172,-10083,61,efd1fe00,0.0,0.0,0.0,0.0,0.0,0.0
2026-05-25 09:41:36.624176,1779716496.624176,1040534,-440190,164452173,38312,45873,-3593,61,efd1fe00,0.0,0.0,0.0,0.0,0.0,0.0
2026-05-25 09:41:36.641075,1779716496.641075,1040534,-440190,164452173,38312,45873,-3593,61,efd1fe00,0.0,0.0,0.0,0.0,0.0,0.0
2026-05-25 09:41:36.648078,1779716496.648078,1034054,-326743,164436638,38437,46449,-10610,61,efd1fe00,0.0,0.0,0.0,0.0,0.0,0.0
2026-05-25 09:41:36.665152,1779716496.665152,1034054,-326743,164436638,38437,46449,-10610,61,efd1fe00,0.0,0.0,0.0,0.0,0.0,0.0
2026-05-25 09:41:36.678426,1779716496.678426,1082550,-226569,164456620,13571,17484,8002,61,efd2fe00,0.0,0.0,0.0,0.0,0.0,0.0
2026-05-25 09:41:36.696088,1779716496.696088,1082550,-226569,164456620,13571,17484,8002,61,efd2fe00,0.0,0.0,0.0,0.0,0.0,0.0
2026-05-25 09:41:36.710783,1779716496.710783,1168034,-250326,164435337,7965,1954,1155,61,efd2fe00,0.0,0.0,0.0,0.0,0.0,0.0
2026-05-25 09:41:36.728726,1779716496.728726,1168034,-250326,164435337,7965,1954,1155,61,efd2fe00,0.0,0.0,0.0,0.0,0.0,0.0
2026-05-25 09:41:36.738697,1779716496.738697,1225034,-303492,164408634,-7838,-17254,42184,61,efd2fe00,0.0,0.0,0.0,0.0,0.0,0.0
2026-05-25 09:41:36.747705,1779716496.747705,1225034,-303492,164408634,-7838,-17254,42184,61,efd2fe00,0.0,0.0,0.0,0.0,0.0,0.0
2026-05-25 09:41:36.755427,1779716496.755427,1283730,-381435,164357574,2041,-17854,29114,61,efd2fe00,0.0,0.0,0.0,0.0,0.0,0.0
2026-05-25 09:41:36.764977,1779716496.764977,1283730,-381435,164357574,2041,-17854,29114,61,efd2fe00,0.0,0.0,0.0,0.0,0.0,0.0
2026-05-25 09:41:36.772299,1779716496.772299,1223639,-443683,164341733,33203,10828,14269,61,efd2fe00,0.0,0.0,0.0,0.0,0.0,0.0
2026-05-25 09:41:36.783638,1779716496.783638,1223639,-443683,164341733,33203,10828,14269,61,efd2fe00,0.0,0.0,0.0,0.0,0.0,0.0
2026-05-25 09:41:36.792350,1779716496.792350,1222841,-473838,164360720,67227,10484,-19282,61,efd1fe00,0.0,0.0,0.0,0.0,0.0,0.0
2026-05-25 09:41:36.802497,1779716496.802497,1222841,-473838,164360720,67227,10484,-19282,61,efd1fe00,0.0,0.0,0.0,0.0,0.0,0.0
2026-05-25 09:41:36.810843,1779716496.810843,1195802,-500672,164411668,89799,33567,-30786,61,efd1fe00,0.0,0.0,0.0,0.0,0.0,0.0
2026-05-25 09:41:36.819738,1779716496.819738,1195802,-500672,164411668,89799,33567,-30786,61,efd1fe00,0.0,0.0,0.0,0.0,0.0,0.0
2026-05-25 09:41:36.828244,1779716496.828244,1150047,-523379,164387810,61738,42985,-42146,61,efd1fe00,0.0,0.0,0.0,0.0,0.0,0.0
2026-05-25 09:41:36.836926,1779716496.836926,1150047,-523379,164387810,61738,42985,-42146,61,efd1fe00,0.0,0.0,0.0,0.0,0.0,0.0
2026-05-25 09:41:36.844274,1779716496.844274,1092391,-514813,164394641,62701,39005,-43942,61,efd2fe00,0.0,0.0,0.0,0.0,0.0,0.0
2026-05-25 09:41:36.853070,1779716496.853070,1092391,-514813,164394641,62701,39005,-43942,61,efd2fe00,0.0,0.0,0.0,0.0,0.0,0.0
2026-05-25 09:41:36.860067,1779716496.860067,1058919,-454378,164395679,35775,39303,-24643,61,efd1fe00,0.0,0.0,0.0,0.0,0.0,0.0
2026-05-25 09:41:36.869983,1779716496.869983,1058919,-454378,164395679,35775,39303,-24643,61,efd1fe00,0.0,0.0,0.0,0.0,0.0,0.0
2026-05-25 09:41:36.877196,1779716496.877196,1063865,-391734,164395021,44781,15641,-9082,61,efd1fe00,0.0,0.0,0.0,0.0,0.0,0.0
2026-05-25 09:41:36.885902,1779716496.885902,1063865,-391734,164395021,44781,15641,-9082,61,efd1fe00,0.0,0.0,0.0,0.0,0.0,0.0
2026-05-25 09:41:36.892972,1779716496.892972,1095473,-390186,164403128,26959,13716,-5756,61,efd1fe00,0.0,0.0,0.0,0.0,0.0,0.0
2026-05-25 09:41:36.902685,1779716496.902685,1095473,-390186,164403128,26959,13716,-5756,61,efd1fe00,0.0,0.0,0.0,0.0,0.0,0.0
2026-05-25 09:41:36.911097,1779716496.911097,1127035,-385738,164369902,44373,13650,9327,61,efd1fe00,0.0,0.0,0.0,0.0,0.0,0.0
2026-05-25 09:41:36.922639,1779716496.922639,1127035,-385738,164369902,44373,13650,9327,61,efd1fe00,0.0,0.0,0.0,0.0,0.0,0.0
2026-05-25 09:41:36.937903,1779716496.937903,1159409,-376429,164368750,61252,19775,3489,61,efd2fe00,0.0,0.0,0.0,0.0,0.0,0.0
2026-05-25 09:41:36.955749,1779716496.955749,1159409,-376429,164368750,61252,19775,3489,61,efd2fe00,0.0,0.0,0.0,0.0,0.0,0.0
2026-05-25 09:41:36.970034,1779716496.970034,1150140,-347108,164384137,53923,15729,4265,61,efd2fe00,0.0,0.0,0.0,0.0,0.0,0.0
2026-05-25 09:41:36.986711,1779716496.986711,1150140,-347108,164384137,53923,15729,4265,61,efd2fe00,0.0,0.0,0.0,0.0,0.0,0.0
2026-05-25 09:41:37.000035,1779716497.000035,1143718,-356679,164350078,31564,24446,5298,61,efd1fe00,0.0,0.0,0.0,0.0,0.0,0.0
2026-05-25 09:41:37.011517,1779716497.011517,1143718,-356679,164350078,31564,24446,5298,61,efd1fe00,0.0,0.0,0.0,0.0,0.0,0.0
2026-05-25 09:41:37.025013,1779716497.025013,1142274,-371521,164374108,14585,37369,-309,61,efd1fe00,0.0,0.0,0.0,0.0,0.0,0.0
2026-05-25 09:41:37.034466,1779716497.034466,1142274,-371521,164374108,14585,37369,-309,61,efd1fe00,0.0,0.0,0.0,0.0,0.0,0.0
2026-05-25 09:41:37.042959,1779716497.042959,1133244,-420426,164325207,34593,36289,9952,61,efd1fe00,0.0,0.0,0.0,0.0,0.0,0.0
2026-05-25 09:41:37.053495,1779716497.053495,1133244,-420426,164325207,34593,36289,9952,61,efd1fe00,0.0,0.0,0.0,0.0,0.0,0.0
2026-05-25 09:41:37.065966,1779716497.065966,1096607,-429008,164322625,78900,25528,5308,61,efd1fe00,0.0,0.0,0.0,0.0,0.0,0.0
2026-05-25 09:41:37.075489,1779716497.075489,1096607,-429008,164322625,78900,25528,5308,61,efd1fe00,0.0,0.0,0.0,0.0,0.0,0.0
2026-05-25 09:41:37.083105,1779716497.083105,1114277,-476137,164362530,68560,2300,569,61,efd1fe00,0.0,0.0,0.0,0.0,0.0,0.0
2026-05-25 09:41:37.100567,1779716497.100567,1114277,-476137,164362530,68560,2300,569,61,efd1fe00,0.0,0.0,0.0,0.0,0.0,0.0
2026-05-25 09:41:37.114736,1779716497.114736,1137751,-511642,164356579,49046,9317,-3623,61,efd1fe00,0.0,0.0,0.0,0.0,0.0,0.0
2026-05-25 09:41:37.132345,1779716497.132345,1137751,-511642,164356579,49046,9317,-3623,61,efd1fe00,0.0,0.0,0.0,0.0,0.0,0.0
2026-05-25 09:41:37.142958,1779716497.142958,1158694,-510872,164388791,45323,-3382,-2541,61,efd1fe00,0.0,0.0,0.0,0.0,0.0,0.0
2026-05-25 09:41:37.152003,1779716497.152003,1158694,-510872,164388791,45323,-3382,-2541,61,efd1fe00,0.0,0.0,0.0,0.0,0.0,0.0
2026-05-25 09:41:37.159592,1779716497.159592,1157824,-503285,164365761,24681,11916,820,61,efd1fe00,0.0,0.0,0.0,0.0,0.0,0.0
2026-05-25 09:41:37.168770,1779716497.168770,1157824,-503285,164365761,24681,11916,820,61,efd1fe00,0.0,0.0,0.0,0.0,0.0,0.0
2026-05-25 09:41:37.176505,1779716497.176505,1154092,-460427,164365863,49434,13790,-15786,61,efd2fe00,0.0,0.0,0.0,0.0,0.0,0.0
2026-05-25 09:41:37.185440,1779716497.185440,1154092,-460427,164365863,49434,13790,-15786,61,efd2fe00,0.0,0.0,0.0,0.0,0.0,0.0
2026-05-25 09:41:37.192677,1779716497.192677,1173107,-446381,164395605,38784,31321,-21197,61,efd2fe00,0.0,0.0,0.0,0.0,0.0,0.0
2026-05-25 09:41:37.201154,1779716497.201154,1173107,-446381,164395605,38784,31321,-21197,61,efd2fe00,0.0,0.0,0.0,0.0,0.0,0.0
2026-05-25 09:41:37.208622,1779716497.208622,1156210,-393557,164391534,47271,43244,1541,61,efd2fe00,0.0,0.0,0.0,0.0,0.0,0.0
2026-05-25 09:41:37.217147,1779716497.217147,1156210,-393557,164391534,47271,43244,1541,61,efd2fe00,0.0,0.0,0.0,0.0,0.0,0.0
2026-05-25 09:41:37.228069,1779716497.228069,1136531,-361619,164398461,57417,41341,35856,61,efd2fe00,0.0,0.0,0.0,0.0,0.0,0.0
2026-05-25 09:41:37.237484,1779716497.237484,1136531,-361619,164398461,57417,41341,35856,61,efd2fe00,0.0,0.0,0.0,0.0,0.0,0.0
2026-05-25 09:41:37.245279,1779716497.245279,1102039,-346329,164401424,40150,40901,35851,61,efd1fe00,0.0,0.0,0.0,0.0,0.0,0.0
2026-05-25 09:41:37.253829,1779716497.253829,1102039,-346329,164401424,40150,40901,35851,61,efd1fe00,0.0,0.0,0.0,0.0,0.0,0.0
2026-05-25 09:41:37.262453,1779716497.262453,1151509,-361619,164380093,58133,36110,22349,61,efd1fe00,0.0,0.0,0.0,0.0,0.0,0.0
2026-05-25 09:41:37.272683,1779716497.272683,1151509,-361619,164380093,58133,36110,22349,61,efd1fe00,0.0,0.0,0.0,0.0,0.0,0.0
2026-05-25 09:41:37.282322,1779716497.282322,1153981,-421456,164361677,46404,40160,1042,61,efd1fe00,0.0,0.0,0.0,0.0,0.0,0.0
2026-05-25 09:41:37.291639,1779716497.291639,1153981,-421456,164361677,46404,40160,1042,61,efd1fe00,0.0,0.0,0.0,0.0,0.0,0.0
2026-05-25 09:41:37.302657,1779716497.302657,1162308,-467807,164394366,46957,46888,-2693,61,efd1fe00,0.0,0.0,0.0,0.0,0.0,0.0
2026-05-25 09:41:37.321148,1779716497.321148,1162308,-467807,164394366,46957,46888,-2693,61,efd1fe00,0.0,0.0,0.0,0.0,0.0,0.0
2026-05-25 09:41:37.335529,1779716497.335529,1111751,-502430,164409095,32667,49694,11029,61,efd1fe00,0.0,0.0,0.0,0.0,0.0,0.0
2026-05-25 09:41:37.352151,1779716497.352151,1111751,-502430,164409095,32667,49694,11029,61,efd1fe00,0.0,0.0,0.0,0.0,0.0,0.0
2026-05-25 09:41:37.365029,1779716497.365029,1104067,-497062,164388601,27913,55620,-14110,61,efd2fe00,0.0,0.0,0.0,0.0,0.0,0.0
2026-05-25 09:41:37.379269,1779716497.379269,1104067,-497062,164388601,27913,55620,-14110,61,efd2fe00,0.0,0.0,0.0,0.0,0.0,0.0
2026-05-25 09:41:37.387424,1779716497.387424,1106035,-466468,164392407,36303,66976,-13368,61,efd1fe00,0.0,0.0,0.0,0.0,0.0,0.0
2026-05-25 09:41:37.400144,1779716497.400144,1106035,-466468,164392407,36303,66976,-13368,61,efd1fe00,0.0,0.0,0.0,0.0,0.0,0.0
2026-05-25 09:41:37.415002,1779716497.415002,1085097,-417791,164418664,35725,64562,-16542,61,efd1fe00,0.0,0.0,0.0,0.0,0.0,0.0
2026-05-25 09:41:37.425867,1779716497.425867,1085097,-417791,164418664,35725,64562,-16542,61,efd1fe00,0.0,0.0,0.0,0.0,0.0,0.0
2026-05-25 09:41:37.433882,1779716497.433882,1097241,-351449,164497896,26009,43738,-10307,61,efd1fe00,0.0,0.0,0.0,0.0,0.0,0.0
2026-05-25 09:41:37.442473,1779716497.442473,1097241,-351449,164497896,26009,43738,-10307,61,efd1fe00,0.0,0.0,0.0,0.0,0.0,0.0
2026-05-25 09:41:37.450434,1779716497.450434,1025379,-308426,164499855,22362,-6465,-29442,61,efd2fe00,0.0,0.0,0.0,0.0,0.0,0.0
2026-05-25 09:41:37.460362,1779716497.460362,1025379,-308426,164499855,22362,-6465,-29442,61,efd2fe00,0.0,0.0,0.0,0.0,0.0,0.0
2026-05-25 09:41:37.468219,1779716497.468219,1097296,-308989,164468414,43748,-29894,-36986,61,efd2fe00,0.0,0.0,0.0,0.0,0.0,0.0
2026-05-25 09:41:37.478596,1779716497.478596,1097296,-308989,164468414,43748,-29894,-36986,61,efd2fe00,0.0,0.0,0.0,0.0,0.0,0.0
2026-05-25 09:41:37.490459,1779716497.490459,1115482,-365838,164420609,39452,-29348,-42779,61,efd2fe00,0.0,0.0,0.0,0.0,0.0,0.0
2026-05-25 09:41:37.507958,1779716497.507958,1115482,-365838,164420609,39452,-29348,-42779,61,efd2fe00,0.0,0.0,0.0,0.0,0.0,0.0
2026-05-25 09:41:37.522282,1779716497.522282,1233565,-403013,164446984,34488,-23727,-5168,61,efd2fe00,0.0,0.0,0.0,0.0,0.0,0.0
2026-05-25 09:41:37.531851,1779716497.531851,1233565,-403013,164446984,34488,-23727,-5168,61,efd2fe00,0.0,0.0,0.0,0.0,0.0,0.0
2026-05-25 09:41:37.539264,1779716497.539264,1253290,-390460,164409826,29046,3385,-10949,61,efd2fe00,0.0,0.0,0.0,0.0,0.0,0.0
2026-05-25 09:41:37.548115,1779716497.548115,1253290,-390460,164409826,29046,3385,-10949,61,efd2fe00,0.0,0.0,0.0,0.0,0.0,0.0
2026-05-25 09:41:37.555879,1779716497.555879,1342483,-386015,164421398,23059,18943,-20340,61,efd2fe00,0.0,0.0,0.0,0.0,0.0,0.0
2026-05-25 09:41:37.565514,1779716497.565514,1342483,-386015,164421398,23059,18943,-20340,61,efd2fe00,0.0,0.0,0.0,0.0,0.0,0.0
2026-05-25 09:41:37.573002,1779716497.573002,1314720,-383356,164353400,50291,54393,-6361,61,efd2fe00,0.0,0.0,0.0,0.0,0.0,0.0
2026-05-25 09:41:37.585961,1779716497.585961,1314720,-383356,164353400,50291,54393,-6361,61,efd2fe00,0.0,0.0,0.0,0.0,0.0,0.0
2026-05-25 09:41:37.602872,1779716497.602872,1297719,-440823,164322814,62421,82928,-9249,61,efd2fe00,0.0,0.0,0.0,0.0,0.0,0.0
2026-05-25 09:41:37.614757,1779716497.614757,1297719,-440823,164322814,62421,82928,-9249,61,efd2fe00,0.0,0.0,0.0,0.0,0.0,0.0
2026-05-25 09:41:37.627967,1779716497.627967,1184047,-441946,164344196,53718,95672,16297,61,efd2fe00,0.0,0.0,0.0,0.0,0.0,0.0
2026-05-25 09:41:37.644683,1779716497.644683,1184047,-441946,164344196,53718,95672,16297,61,efd2fe00,0.0,0.0,0.0,0.0,0.0,0.0
2026-05-25 09:41:37.658247,1779716497.658247,1106760,-471081,164366086,45071,87326,13713,61,efd1fe00,0.0,0.0,0.0,0.0,0.0,0.0
2026-05-25 09:41:37.675616,1779716497.675616,1106760,-471081,164366086,45071,87326,13713,61,efd1fe00,0.0,0.0,0.0,0.0,0.0,0.0
2026-05-25 09:41:37.690948,1779716497.690948,1085224,-501465,164410736,29018,83900,10013,61,efd1fe00,0.0,0.0,0.0,0.0,0.0,0.0
2026-05-25 09:41:37.709151,1779716497.709151,1085224,-501465,164410736,29018,83900,10013,61,efd1fe00,0.0,0.0,0.0,0.0,0.0,0.0
2026-05-25 09:41:37.725029,1779716497.725029,1074856,-505197,164405772,31752,76323,-7949,61,efd1fe00,0.0,0.0,0.0,0.0,0.0,0.0
2026-05-25 09:41:37.745632,1779716497.745632,1074856,-505197,164405772,31752,76323,-7949,61,efd1fe00,0.0,0.0,0.0,0.0,0.0,0.0
2026-05-25 09:41:37.766522,1779716497.766522,1088731,-493955,164397203,26342,67053,-19944,61,efd1fe00,0.0,0.0,0.0,0.0,0.0,0.0
2026-05-25 09:41:37.786485,1779716497.786485,1088731,-493955,164397203,26342,67053,-19944,61,efd1fe00,0.0,0.0,0.0,0.0,0.0,0.0
2026-05-25 09:41:37.802154,1779716497.802154,1086972,-439124,164415607,9927,74095,-8110,61,efd2fe00,0.0,0.0,0.0,0.0,0.0,0.0
2026-05-25 09:41:37.821466,1779716497.821466,1086972,-439124,164415607,9927,74095,-8110,61,efd2fe00,0.0,0.0,0.0,0.0,0.0,0.0
2026-05-25 09:41:37.830315,1779716497.830315,1030262,-481696,164427344,13749,58825,18,61,efd1fe00,0.0,0.0,0.0,0.0,0.0,0.0
2026-05-25 09:41:37.839853,1779716497.839853,1030262,-481696,164427344,13749,58825,18,61,efd1fe00,0.0,0.0,0.0,0.0,0.0,0.0
2026-05-25 09:41:37.854104,1779716497.854104,995321,-536905,164484544,25368,2691,-19354,61,efd2fe00,0.0,0.0,0.0,0.0,0.0,0.0
2026-05-25 09:41:37.864056,1779716497.864056,995321,-536905,164484544,25368,2691,-19354,61,efd2fe00,0.0,0.0,0.0,0.0,0.0,0.0
2026-05-25 09:41:37.879858,1779716497.879858,980726,-530788,164425254,61502,-40190,-13572,61,efd1fe00,0.0,0.0,0.0,0.0,0.0,0.0
2026-05-25 09:41:37.891698,1779716497.891698,980726,-530788,164425254,61502,-40190,-13572,61,efd1fe00,0.0,0.0,0.0,0.0,0.0,0.0
2026-05-25 09:41:37.899307,1779716497.899307,1117338,-486861,164467220,66497,-71374,-15013,61,efd1fe00,0.0,0.0,0.0,0.0,0.0,0.0
2026-05-25 09:41:37.909080,1779716497.909080,1117338,-486861,164467220,66497,-71374,-15013,61,efd1fe00,0.0,0.0,0.0,0.0,0.0,0.0
2026-05-25 09:41:37.919336,1779716497.919336,1117338,-486861,164467220,66497,-71374,-15013,61,efd1fe00,0.0,0.0,0.0,0.0,0.0,0.0
2026-05-25 09:41:37.927013,1779716497.927013,1176500,-300509,164305669,67678,-61687,-15561,61,efd1fe00,0.0,0.0,0.0,0.0,0.0,0.0
2026-05-25 09:41:37.935029,1779716497.935029,1384357,-219305,164392683,38987,-24395,-10555,61,efd1fe00,0.0,0.0,0.0,0.0,0.0,0.0
2026-05-25 09:41:37.943930,1779716497.943930,1384357,-219305,164392683,38987,-24395,-10555,61,efd1fe00,0.0,0.0,0.0,0.0,0.0,0.0
2026-05-25 09:41:37.952122,1779716497.952122,1379631,-86904,164263432,29833,21319,-16976,61,efd1fe00,0.0,0.0,0.0,0.0,0.0,0.0
2026-05-25 09:41:37.974813,1779716497.974813,1379631,-86904,164263432,29833,21319,-16976,61,efd1fe00,0.0,0.0,0.0,0.0,0.0,0.0
2026-05-25 09:41:37.984810,1779716497.984810,1336280,-191658,164386221,22381,79866,-15683,61,efd1fe00,0.0,0.0,0.0,0.0,0.0,0.0
2026-05-25 09:41:37.995571,1779716497.995571,1336280,-191658,164386221,22381,79866,-15683,61,efd1fe00,0.0,0.0,0.0,0.0,0.0,0.0
2026-05-25 09:41:38.004132,1779716498.004132,1173320,-288324,164403418,15070,106092,-31517,61,efd1fe00,0.0,0.0,0.0,0.0,0.0,0.0
2026-05-25 09:41:38.014895,1779716498.014895,1173320,-288324,164403418,15070,106092,-31517,61,efd1fe00,0.0,0.0,0.0,0.0,0.0,0.0
2026-05-25 09:41:38.025690,1779716498.025690,990086,-556884,164480024,-4085,70523,-22663,61,efd1fe00,0.0,0.0,0.0,0.0,0.0,0.0
2026-05-25 09:41:38.035299,1779716498.035299,990086,-556884,164480024,-4085,70523,-22663,61,efd1fe00,0.0,0.0,0.0,0.0,0.0,0.0
2026-05-25 09:41:38.042611,1779716498.042611,1049354,-543045,164429134,18316,39678,-16825,61,efd2fe00,0.0,0.0,0.0,0.0,0.0,0.0
2026-05-25 09:41:38.051070,1779716498.051070,1049354,-543045,164429134,18316,39678,-16825,61,efd2fe00,0.0,0.0,0.0,0.0,0.0,0.0
2026-05-25 09:41:38.058683,1779716498.058683,1088307,-565219,164332683,12779,27399,23721,61,efd2fe00,0.0,0.0,0.0,0.0,0.0,0.0
2026-05-25 09:41:38.069437,1779716498.069437,1088307,-565219,164332683,12779,27399,23721,61,efd2fe00,0.0,0.0,0.0,0.0,0.0,0.0
2026-05-25 09:41:38.078156,1779716498.078156,1209337,-452574,164326507,23094,50343,44085,61,efd2fe00,0.0,0.0,0.0,0.0,0.0,0.0
2026-05-25 09:41:38.087065,1779716498.087065,1209337,-452574,164326507,23094,50343,44085,61,efd2fe00,0.0,0.0,0.0,0.0,0.0,0.0
2026-05-25 09:41:38.094377,1779716498.094377,1190315,-440424,164342913,23671,56521,64891,61,efd1fe00,0.0,0.0,0.0,0.0,0.0,0.0
2026-05-25 09:41:38.104075,1779716498.104075,1190315,-440424,164342913,23671,56521,64891,61,efd1fe00,0.0,0.0,0.0,0.0,0.0,0.0
2026-05-25 09:41:38.112309,1779716498.112309,1097976,-494462,164387384,19436,29723,31474,61,efd1fe00,0.0,0.0,0.0,0.0,0.0,0.0
2026-05-25 09:41:38.122353,1779716498.122353,1097976,-494462,164387384,19436,29723,31474,61,efd1fe00,0.0,0.0,0.0,0.0,0.0,0.0
2026-05-25 09:41:38.130361,1779716498.130361,1115778,-549454,164326806,32436,31894,-10015,61,efd1fe00,0.0,0.0,0.0,0.0,0.0,0.0
2026-05-25 09:41:38.139024,1779716498.139024,1115778,-549454,164326806,32436,31894,-10015,61,efd1fe00,0.0,0.0,0.0,0.0,0.0,0.0
2026-05-25 09:41:38.146182,1779716498.146182,1063086,-648695,164309104,27413,36365,-39547,61,efd1fe00,0.0,0.0,0.0,0.0,0.0,0.0
2026-05-25 09:41:38.154539,1779716498.154539,1063086,-648695,164309104,27413,36365,-39547,61,efd1fe00,0.0,0.0,0.0,0.0,0.0,0.0
2026-05-25 09:41:38.161360,1779716498.161360,1185078,-598786,164377464,50422,73284,-74450,61,efd1fe00,0.0,0.0,0.0,0.0,0.0,0.0
2026-05-25 09:41:38.169885,1779716498.169885,1185078,-598786,164377464,50422,73284,-74450,61,efd1fe00,0.0,0.0,0.0,0.0,0.0,0.0
2026-05-25 09:41:38.177692,1779716498.177692,1116460,-520892,164445864,104434,91305,-55939,61,efd1fe00,0.0,0.0,0.0,0.0,0.0,0.0
2026-05-25 09:41:38.187579,1779716498.187579,1116460,-520892,164445864,104434,91305,-55939,61,efd1fe00,0.0,0.0,0.0,0.0,0.0,0.0
2026-05-25 09:41:38.197327,1779716498.197327,1097285,-306808,164502240,133201,49051,-29726,61,efd1fe00,0.0,0.0,0.0,0.0,0.0,0.0
2026-05-25 09:41:38.206879,1779716498.206879,1097285,-306808,164502240,133201,49051,-29726,61,efd1fe00,0.0,0.0,0.0,0.0,0.0,0.0
2026-05-25 09:41:38.215706,1779716498.215706,1042245,-87345,164457092,141581,18393,-208,61,efd1fe00,0.0,0.0,0.0,0.0,0.0,0.0
2026-05-25 09:41:38.225921,1779716498.225921,1042245,-87345,164457092,141581,18393,-208,61,efd1fe00,0.0,0.0,0.0,0.0,0.0,0.0
2026-05-25 09:41:38.234047,1779716498.234047,1021353,65345,164443210,101510,-21328,24996,61,efd1fe00,0.0,0.0,0.0,0.0,0.0,0.0
2026-05-25 09:41:38.245665,1779716498.245665,1021353,65345,164443210,101510,-21328,24996,61,efd1fe00,0.0,0.0,0.0,0.0,0.0,0.0
2026-05-25 09:41:38.253522,1779716498.253522,1041090,60258,164355660,40482,-28317,18828,61,efd1fe00,0.0,0.0,0.0,0.0,0.0,0.0
2026-05-25 09:41:38.263619,1779716498.263619,1041090,60258,164355660,40482,-28317,18828,61,efd1fe00,0.0,0.0,0.0,0.0,0.0,0.0
2026-05-25 09:41:38.272506,1779716498.272506,1179225,-182269,164332436,736,-15343,14901,61,efd1fe00,0.0,0.0,0.0,0.0,0.0,0.0
2026-05-25 09:41:38.283787,1779716498.283787,1179225,-182269,164332436,736,-15343,14901,61,efd1fe00,0.0,0.0,0.0,0.0,0.0,0.0
2026-05-25 09:41:38.291646,1779716498.291646,1278891,-511210,164324031,-39892,-7370,879,61,efd2fe00,0.0,0.0,0.0,0.0,0.0,0.0
2026-05-25 09:41:38.300450,1779716498.300450,1278891,-511210,164324031,-39892,-7370,879,61,efd2fe00,0.0,0.0,0.0,0.0,0.0,0.0
2026-05-25 09:41:38.308376,1779716498.308376,1320915,-900702,164326833,-11795,12354,-5240,61,efd2fe00,0.0,0.0,0.0,0.0,0.0,0.0
2026-05-25 09:41:38.340327,1779716498.340327,1320915,-900702,164326833,-11795,12354,-5240,61,efd2fe00,0.0,0.0,0.0,0.0,0.0,0.0
2026-05-25 09:41:38.347373,1779716498.347373,1207413,-1073245,164311059,-1366,34612,-422,61,efd2fe00,0.0,0.0,0.0,0.0,0.0,0.0
2026-05-25 09:41:38.355582,1779716498.355582,1207413,-1073245,164311059,-1366,34612,-422,61,efd2fe00,0.0,0.0,0.0,0.0,0.0,0.0
2026-05-25 09:41:38.375458,1779716498.375458,1158237,-1004516,164205466,3431,92422,-12403,61,efd1fe00,0.0,0.0,0.0,0.0,0.0,0.0
2026-05-25 09:41:38.383502,1779716498.383502,1158237,-1004516,164205466,3431,92422,-12403,61,efd1fe00,0.0,0.0,0.0,0.0,0.0,0.0
2026-05-25 09:41:38.390602,1779716498.390602,1178986,-798579,164557756,93673,154105,-28242,61,efd1fe00,0.0,0.0,0.0,0.0,0.0,0.0
2026-05-25 09:41:38.400263,1779716498.400263,1178986,-798579,164557756,93673,154105,-28242,61,efd1fe00,0.0,0.0,0.0,0.0,0.0,0.0
2026-05-25 09:41:38.407464,1779716498.407464,1130114,-263119,164257124,108894,23283,-47530,61,efd1fe00,0.0,0.0,0.0,0.0,0.0,0.0
2026-05-25 09:41:38.416713,1779716498.416713,1130114,-263119,164257124,108894,23283,-47530,61,efd1fe00,0.0,0.0,0.0,0.0,0.0,0.0
2026-05-25 09:41:38.424709,1779716498.424709,1420400,-37685,164721047,229721,43453,-32587,61,efd1fe00,0.0,0.0,0.0,0.0,0.0,0.0
2026-05-25 09:41:38.433368,1779716498.433368,1420400,-37685,164721047,229721,43453,-32587,61,efd1fe00,0.0,0.0,0.0,0.0,0.0,0.0
2026-05-25 09:41:38.441094,1779716498.441094,995841,455147,164140178,139044,-21674,-12136,61,efd1fe00,0.0,0.0,0.0,0.0,0.0,0.0
2026-05-25 09:41:38.450662,1779716498.450662,995841,455147,164140178,139044,-21674,-12136,61,efd1fe00,0.0,0.0,0.0,0.0,0.0,0.0
2026-05-25 09:41:38.458120,1779716498.458120,1271208,221557,164573994,75328,49395,16029,61,efd1fe00,0.0,0.0,0.0,0.0,0.0,0.0
2026-05-25 09:41:38.468315,1779716498.468315,1271208,221557,164573994,75328,49395,16029,61,efd1fe00,0.0,0.0,0.0,0.0,0.0,0.0
2026-05-25 09:41:38.476727,1779716498.476727,880770,12937,164255435,-2403,134228,50527,61,efd1fe00,0.0,0.0,0.0,0.0,0.0,0.0
2026-05-25 09:41:38.486708,1779716498.486708,880770,12937,164255435,-2403,134228,50527,61,efd1fe00,0.0,0.0,0.0,0.0,0.0,0.0
2026-05-25 09:41:38.496842,1779716498.496842,1178784,-450538,164581967,-61843,35154,-1112,61,efd1fe00,0.0,0.0,0.0,0.0,0.0,0.0
2026-05-25 09:41:38.507490,1779716498.507490,1178784,-450538,164581967,-61843,35154,-1112,61,efd1fe00,0.0,0.0,0.0,0.0,0.0,0.0
2026-05-25 09:41:38.517071,1779716498.517071,1090321,-796130,164327724,3947,63204,-12416,61,efd1fe00,0.0,0.0,0.0,0.0,0.0,0.0
2026-05-25 09:41:38.526886,1779716498.526886,1090321,-796130,164327724,3947,63204,-12416,61,efd1fe00,0.0,0.0,0.0,0.0,0.0,0.0
2026-05-25 09:41:38.534118,1779716498.534118,1182578,-853592,164392276,24886,6501,-29131,61,efd1fe00,0.0,0.0,0.0,0.0,0.0,0.0
2026-05-25 09:41:38.545436,1779716498.545436,1182578,-853592,164392276,24886,6501,-29131,61,efd1fe00,0.0,0.0,0.0,0.0,0.0,0.0
2026-05-25 09:41:38.552968,1779716498.552968,1151000,-920090,164309135,42235,61526,-30540,61,efd1fe00,0.0,0.0,0.0,0.0,0.0,0.0
2026-05-25 09:41:38.562914,1779716498.562914,1151000,-920090,164309135,42235,61526,-30540,61,efd1fe00,0.0,0.0,0.0,0.0,0.0,0.0
2026-05-25 09:41:38.573807,1779716498.573807,1049072,-721239,164348374,75618,113680,-20678,61,efd1fe00,0.0,0.0,0.0,0.0,0.0,0.0
2026-05-25 09:41:38.589525,1779716498.589525,1049072,-721239,164348374,75618,113680,-20678,61,efd1fe00,0.0,0.0,0.0,0.0,0.0,0.0
2026-05-25 09:41:38.603253,1779716498.603253,971737,-563958,164405444,37146,88443,-19280,61,efd1fe00,0.0,0.0,0.0,0.0,0.0,0.0
2026-05-25 09:41:38.618637,1779716498.618637,971737,-563958,164405444,37146,88443,-19280,61,efd1fe00,0.0,0.0,0.0,0.0,0.0,0.0
2026-05-25 09:41:38.633362,1779716498.633362,847811,-435018,164461198,57367,44903,-12259,61,efd1fe00,0.0,0.0,0.0,0.0,0.0,0.0
2026-05-25 09:41:38.650841,1779716498.650841,847811,-435018,164461198,57367,44903,-12259,61,efd1fe00,0.0,0.0,0.0,0.0,0.0,0.0
2026-05-25 09:41:38.665450,1779716498.665450,831420,-345966,164553901,88781,-25694,-5041,61,efd1fe00,0.0,0.0,0.0,0.0,0.0,0.0
2026-05-25 09:41:38.684882,1779716498.684882,831420,-345966,164553901,88781,-25694,-5041,61,efd1fe00,0.0,0.0,0.0,0.0,0.0,0.0
2026-05-25 09:41:38.701048,1779716498.701048,799583,-306770,164518063,52934,-169621,-16226,61,efd1fe00,0.0,0.0,0.0,0.0,0.0,0.0
2026-05-25 09:41:38.711510,1779716498.711510,799583,-306770,164518063,52934,-169621,-16226,61,efd1fe00,0.0,0.0,0.0,0.0,0.0,0.0
2026-05-25 09:41:38.720685,1779716498.720685,1093770,-358331,164487628,23831,-220549,-37455,61,efd1fe00,0.0,0.0,0.0,0.0,0.0,0.0
2026-05-25 09:41:38.730436,1779716498.730436,1093770,-358331,164487628,23831,-220549,-37455,61,efd1fe00,0.0,0.0,0.0,0.0,0.0,0.0
2026-05-25 09:41:38.737805,1779716498.737805,1307089,-301822,164327786,6856,-198777,-57115,61,efd1fe00,0.0,0.0,0.0,0.0,0.0,0.0
2026-05-25 09:41:38.747224,1779716498.747224,1307089,-301822,164327786,6856,-198777,-57115,61,efd1fe00,0.0,0.0,0.0,0.0,0.0,0.0
2026-05-25 09:41:38.754687,1779716498.754687,1586394,-365762,164274606,-10152,-121581,-50078,61,efd1fe00,0.0,0.0,0.0,0.0,0.0,0.0
2026-05-25 09:41:38.769442,1779716498.769442,1586394,-365762,164274606,-10152,-121581,-50078,61,efd1fe00,0.0,0.0,0.0,0.0,0.0,0.0
2026-05-25 09:41:38.778622,1779716498.778622,1684740,-270398,164216153,13989,34451,-22036,61,efd1fe00,0.0,0.0,0.0,0.0,0.0,0.0
2026-05-25 09:41:38.790165,1779716498.790165,1684740,-270398,164216153,13989,34451,-22036,61,efd1fe00,0.0,0.0,0.0,0.0,0.0,0.0
2026-05-25 09:41:38.807038,1779716498.807038,1589388,-265686,164248976,17753,121807,-13880,61,efd1fe00,0.0,0.0,0.0,0.0,0.0,0.0
2026-05-25 09:41:38.824675,1779716498.824675,1589388,-265686,164248976,17753,121807,-13880,61,efd1fe00,0.0,0.0,0.0,0.0,0.0,0.0
2026-05-25 09:41:38.833798,1779716498.833798,1461352,-191684,164301143,47530,203115,2889,61,efd2fe00,0.0,0.0,0.0,0.0,0.0,0.0
2026-05-25 09:41:38.842401,1779716498.842401,1461352,-191684,164301143,47530,203115,2889,61,efd2fe00,0.0,0.0,0.0,0.0,0.0,0.0
2026-05-25 09:41:38.859243,1779716498.859243,1197422,-275495,164340684,49162,217876,3385,61,efd2fe00,0.0,0.0,0.0,0.0,0.0,0.0
2026-05-25 09:41:38.879119,1779716498.879119,1197422,-275495,164340684,49162,217876,3385,61,efd2fe00,0.0,0.0,0.0,0.0,0.0,0.0
2026-05-25 09:41:38.892736,1779716498.892736,968365,-382052,164434871,56982,184760,-7030,61,efd2fe00,0.0,0.0,0.0,0.0,0.0,0.0
2026-05-25 09:41:38.910254,1779716498.910254,968365,-382052,164434871,56982,184760,-7030,61,efd2fe00,0.0,0.0,0.0,0.0,0.0,0.0
2026-05-25 09:41:38.923674,1779716498.923674,798286,-528526,164461529,50269,151699,1348,61,efd1fe00,0.0,0.0,0.0,0.0,0.0,0.0
2026-05-25 09:41:38.936132,1779716498.936132,798286,-528526,164461529,50269,151699,1348,61,efd1fe00,0.0,0.0,0.0,0.0,0.0,0.0
2026-05-25 09:41:38.944884,1779716498.944884,690557,-646115,164493933,57499,90717,11076,61,efd1fe00,0.0,0.0,0.0,0.0,0.0,0.0
2026-05-25 09:41:38.953675,1779716498.953675,690557,-646115,164493933,57499,90717,11076,61,efd1fe00,0.0,0.0,0.0,0.0,0.0,0.0
2026-05-25 09:41:38.962869,1779716498.962869,747358,-686859,164432430,51261,27016,-6660,61,efd1fe00,0.0,0.0,0.0,0.0,0.0,0.0
2026-05-25 09:41:38.982308,1779716498.982308,747358,-686859,164432430,51261,27016,-6660,61,efd1fe00,0.0,0.0,0.0,0.0,0.0,0.0
2026-05-25 09:41:38.996773,1779716498.996773,938100,-648138,164364871,47913,1145,3211,61,efd1fe00,0.0,0.0,0.0,0.0,0.0,0.0
2026-05-25 09:41:39.014816,1779716499.014816,938100,-648138,164364871,47913,1145,3211,61,efd1fe00,0.0,0.0,0.0,0.0,0.0,0.0
2026-05-25 09:41:39.028676,1779716499.028676,1118134,-471455,164300136,42623,-35834,-10114,61,efd1fe00,0.0,0.0,0.0,0.0,0.0,0.0
2026-05-25 09:41:39.045238,1779716499.045238,1118134,-471455,164300136,42623,-35834,-10114,61,efd1fe00,0.0,0.0,0.0,0.0,0.0,0.0
2026-05-25 09:41:39.057059,1779716499.057059,1348296,-363163,164282361,43413,-5810,-2338,61,efd1fe00,0.0,0.0,0.0,0.0,0.0,0.0
2026-05-25 09:41:39.075150,1779716499.075150,1348296,-363163,164282361,43413,-5810,-2338,61,efd1fe00,0.0,0.0,0.0,0.0,0.0,0.0
2026-05-25 09:41:39.092529,1779716499.092529,1412275,-189107,164267326,25350,31909,21893,61,efd1fe00,0.0,0.0,0.0,0.0,0.0,0.0
2026-05-25 09:41:39.112642,1779716499.112642,1412275,-189107,164267326,25350,31909,21893,61,efd1fe00,0.0,0.0,0.0,0.0,0.0,0.0
2026-05-25 09:41:39.128987,1779716499.128987,1386366,-135250,164334455,32332,62171,5072,61,efd1fe00,0.0,0.0,0.0,0.0,0.0,0.0
2026-05-25 09:41:39.150169,1779716499.150169,1386366,-135250,164334455,32332,62171,5072,61,efd1fe00,0.0,0.0,0.0,0.0,0.0,0.0
2026-05-25 09:41:39.167159,1779716499.167159,1195035,-94170,164394652,44458,84925,19103,61,efd1fe00,0.0,0.0,0.0,0.0,0.0,0.0
2026-05-25 09:41:39.186178,1779716499.186178,1195035,-94170,164394652,44458,84925,19103,61,efd1fe00,0.0,0.0,0.0,0.0,0.0,0.0
2026-05-25 09:41:39.201316,1779716499.201316,944802,-163665,164519084,34260,55750,-6398,61,efd1fe00,0.0,0.0,0.0,0.0,0.0,0.0
2026-05-25 09:41:39.219281,1779716499.219281,944802,-163665,164519084,34260,55750,-6398,61,efd1fe00,0.0,0.0,0.0,0.0,0.0,0.0
2026-05-25 09:41:39.233374,1779716499.233374,782960,-347575,164520577,10158,-1907,-1322,61,efd1fe00,0.0,0.0,0.0,0.0,0.0,0.0
2026-05-25 09:41:39.252809,1779716499.252809,782960,-347575,164520577,10158,-1907,-1322,61,efd1fe00,0.0,0.0,0.0,0.0,0.0,0.0
2026-05-25 09:41:39.261165,1779716499.261165,829701,-531694,164567089,-11978,-77417,-21683,61,efd2fe00,0.0,0.0,0.0,0.0,0.0,0.0
2026-05-25 09:41:39.275728,1779716499.275728,829701,-531694,164567089,-11978,-77417,-21683,61,efd2fe00,0.0,0.0,0.0,0.0,0.0,0.0
2026-05-25 09:41:39.284958,1779716499.284958,995031,-746822,164483397,-22328,-124048,-29784,61,efd2fe00,0.0,0.0,0.0,0.0,0.0,0.0
2026-05-25 09:41:39.294344,1779716499.294344,995031,-746822,164483397,-22328,-124048,-29784,61,efd2fe00,0.0,0.0,0.0,0.0,0.0,0.0
2026-05-25 09:41:39.302194,1779716499.302194,1257347,-841581,164379136,32845,-100386,-45567,61,efd2fe00,0.0,0.0,0.0,0.0,0.0,0.0
2026-05-25 09:41:39.317411,1779716499.317411,1257347,-841581,164379136,32845,-100386,-45567,61,efd2fe00,0.0,0.0,0.0,0.0,0.0,0.0
2026-05-25 09:41:39.325464,1779716499.325464,1480517,-836878,164221402,59894,-25352,-29566,61,efd2fe00,0.0,0.0,0.0,0.0,0.0,0.0
2026-05-25 09:41:39.334582,1779716499.334582,1480517,-836878,164221402,59894,-25352,-29566,61,efd2fe00,0.0,0.0,0.0,0.0,0.0,0.0
2026-05-25 09:41:39.351136,1779716499.351136,1537149,-679775,164179817,116994,88741,16572,61,efd2fe00,0.0,0.0,0.0,0.0,0.0,0.0
2026-05-25 09:41:39.371191,1779716499.371191,1537149,-679775,164179817,116994,88741,16572,61,efd2fe00,0.0,0.0,0.0,0.0,0.0,0.0
2026-05-25 09:41:39.388052,1779716499.388052,1449814,-519231,164242457,131401,168446,30736,61,efd2fe00,0.0,0.0,0.0,0.0,0.0,0.0
2026-05-25 09:41:39.407789,1779716499.407789,1449814,-519231,164242457,131401,168446,30736,61,efd2fe00,0.0,0.0,0.0,0.0,0.0,0.0
2026-05-25 09:41:39.419272,1779716499.419272,1216843,-330684,164322189,138143,231044,54837,61,efd1fe00,0.0,0.0,0.0,0.0,0.0,0.0
2026-05-25 09:41:39.440104,1779716499.440104,1216843,-330684,164322189,138143,231044,54837,61,efd1fe00,0.0,0.0,0.0,0.0,0.0,0.0
2026-05-25 09:41:39.458174,1779716499.458174,1044629,-189166,164395003,120657,184247,14610,61,efd1fe00,0.0,0.0,0.0,0.0,0.0,0.0
2026-05-25 09:41:39.469734,1779716499.469734,1044629,-189166,164395003,120657,184247,14610,61,efd1fe00,0.0,0.0,0.0,0.0,0.0,0.0
2026-05-25 09:41:39.478569,1779716499.478569,883733,-177399,164466010,84070,139670,5549,61,efd1fe00,0.0,0.0,0.0,0.0,0.0,0.0
2026-05-25 09:41:39.488492,1779716499.488492,883733,-177399,164466010,84070,139670,5549,61,efd1fe00,0.0,0.0,0.0,0.0,0.0,0.0
2026-05-25 09:41:39.495725,1779716499.495725,881513,-193883,164454967,20047,39768,-4911,61,efd1fe00,0.0,0.0,0.0,0.0,0.0,0.0
2026-05-25 09:41:39.505243,1779716499.505243,881513,-193883,164454967,20047,39768,-4911,61,efd1fe00,0.0,0.0,0.0,0.0,0.0,0.0
2026-05-25 09:41:39.512294,1779716499.512294,975876,-353194,164447661,-21410,-17432,-14153,61,efd1fe00,0.0,0.0,0.0,0.0,0.0,0.0
2026-05-25 09:41:39.520988,1779716499.520988,975876,-353194,164447661,-21410,-17432,-14153,61,efd1fe00,0.0,0.0,0.0,0.0,0.0,0.0
2026-05-25 09:41:39.528417,1779716499.528417,1142250,-397906,164332468,-45244,-33777,-9584,61,efd1fe00,0.0,0.0,0.0,0.0,0.0,0.0
2026-05-25 09:41:39.544190,1779716499.544190,1142250,-397906,164332468,-45244,-33777,-9584,61,efd1fe00,0.0,0.0,0.0,0.0,0.0,0.0
2026-05-25 09:41:39.553267,1779716499.553267,1260227,-535477,164286751,-10293,-30400,-24076,61,efd1fe00,0.0,0.0,0.0,0.0,0.0,0.0
2026-05-25 09:41:39.561874,1779716499.561874,1260227,-535477,164286751,-10293,-30400,-24076,61,efd1fe00,0.0,0.0,0.0,0.0,0.0,0.0
2026-05-25 09:41:39.568834,1779716499.568834,1287226,-611268,164245880,44687,-7590,-8574,61,efd2fe00,0.0,0.0,0.0,0.0,0.0,0.0
2026-05-25 09:41:39.579744,1779716499.579744,1287226,-611268,164245880,44687,-7590,-8574,61,efd2fe00,0.0,0.0,0.0,0.0,0.0,0.0
2026-05-25 09:41:39.590830,1779716499.590830,1247257,-611978,164297197,46592,24857,8178,61,efd2fe00,0.0,0.0,0.0,0.0,0.0,0.0
2026-05-25 09:41:39.600625,1779716499.600625,1247257,-611978,164297197,46592,24857,8178,61,efd2fe00,0.0,0.0,0.0,0.0,0.0,0.0
2026-05-25 09:41:39.607502,1779716499.607502,1192787,-592126,164386707,59427,56733,22069,61,efd1fe00,0.0,0.0,0.0,0.0,0.0,0.0
2026-05-25 09:41:39.616866,1779716499.616866,1192787,-592126,164386707,59427,56733,22069,61,efd1fe00,0.0,0.0,0.0,0.0,0.0,0.0
2026-05-25 09:41:39.624700,1779716499.624700,1037677,-513092,164435013,63112,76878,19670,61,efd1fe00,0.0,0.0,0.0,0.0,0.0,0.0
2026-05-25 09:41:39.634016,1779716499.634016,1037677,-513092,164435013,63112,76878,19670,61,efd1fe00,0.0,0.0,0.0,0.0,0.0,0.0
2026-05-25 09:41:39.641515,1779716499.641515,979235,-463168,164543392,67188,45773,1664,61,efd1fe00,0.0,0.0,0.0,0.0,0.0,0.0
2026-05-25 09:41:39.650212,1779716499.650212,979235,-463168,164543392,67188,45773,1664,61,efd1fe00,0.0,0.0,0.0,0.0,0.0,0.0
2026-05-25 09:41:39.661247,1779716499.661247,921296,-409315,164510474,85065,-25009,-11889,61,efd1fe00,0.0,0.0,0.0,0.0,0.0,0.0
2026-05-25 09:41:39.670909,1779716499.670909,921296,-409315,164510474,85065,-25009,-11889,61,efd1fe00,0.0,0.0,0.0,0.0,0.0,0.0
2026-05-25 09:41:39.683004,1779716499.683004,946523,-388688,164527919,98599,-108967,-14759,61,efd1fe00,0.0,0.0,0.0,0.0,0.0,0.0
2026-05-25 09:41:39.698347,1779716499.698347,946523,-388688,164527919,98599,-108967,-14759,61,efd1fe00,0.0,0.0,0.0,0.0,0.0,0.0
2026-05-25 09:41:39.716346,1779716499.716346,946523,-388688,164527919,98599,-108967,-14759,61,efd1fe00,0.0,0.0,0.0,0.0,0.0,0.0
2026-05-25 09:41:39.725390,1779716499.725390,1027137,-335786,164468975,90743,-161031,-23750,61,efd1fe00,0.0,0.0,0.0,0.0,0.0,0.0
2026-05-25 09:41:39.737299,1779716499.737299,1149365,-372441,164411149,73588,-182142,-27964,61,efd1fe00,0.0,0.0,0.0,0.0,0.0,0.0
2026-05-25 09:41:39.748217,1779716499.748217,1149365,-372441,164411149,73588,-182142,-27964,61,efd1fe00,0.0,0.0,0.0,0.0,0.0,0.0
2026-05-25 09:41:39.754826,1779716499.754826,1238273,-380603,164297680,47690,-177716,-46269,61,efd1fe00,0.0,0.0,0.0,0.0,0.0,0.0
2026-05-25 09:41:39.763984,1779716499.763984,1238273,-380603,164297680,47690,-177716,-46269,61,efd1fe00,0.0,0.0,0.0,0.0,0.0,0.0
2026-05-25 09:41:39.771487,1779716499.771487,1394579,-378575,164247016,37916,-118264,-56230,61,efd1fe00,0.0,0.0,0.0,0.0,0.0,0.0
2026-05-25 09:41:39.780964,1779716499.780964,1394579,-378575,164247016,37916,-118264,-56230,61,efd1fe00,0.0,0.0,0.0,0.0,0.0,0.0
2026-05-25 09:41:39.793684,1779716499.793684,1438200,-401455,164199394,36275,-42170,-33672,61,efd1fe00,0.0,0.0,0.0,0.0,0.0,0.0
2026-05-25 09:41:39.807660,1779716499.807660,1438200,-401455,164199394,36275,-42170,-33672,61,efd1fe00,0.0,0.0,0.0,0.0,0.0,0.0
2026-05-25 09:41:39.816846,1779716499.816846,1490410,-394837,164283567,20663,52906,-13887,61,efd1fe00,0.0,0.0,0.0,0.0,0.0,0.0
2026-05-25 09:41:39.827250,1779716499.827250,1490410,-394837,164283567,20663,52906,-13887,61,efd1fe00,0.0,0.0,0.0,0.0,0.0,0.0
2026-05-25 09:41:39.834862,1779716499.834862,1354653,-395275,164347156,4051,148227,-1400,61,efd1fe00,0.0,0.0,0.0,0.0,0.0,0.0
2026-05-25 09:41:39.843759,1779716499.843759,1354653,-395275,164347156,4051,148227,-1400,61,efd1fe00,0.0,0.0,0.0,0.0,0.0,0.0
2026-05-25 09:41:39.851131,1779716499.851131,1246504,-397302,164395817,21053,155757,-23504,61,efd1fe00,0.0,0.0,0.0,0.0,0.0,0.0
2026-05-25 09:41:39.860111,1779716499.860111,1246504,-397302,164395817,21053,155757,-23504,61,efd1fe00,0.0,0.0,0.0,0.0,0.0,0.0
2026-05-25 09:41:39.867830,1779716499.867830,1084770,-398941,164498621,60135,176873,-50534,61,efd1fe00,0.0,0.0,0.0,0.0,0.0,0.0
2026-05-25 09:41:39.876718,1779716499.876718,1084770,-398941,164498621,60135,176873,-50534,61,efd1fe00,0.0,0.0,0.0,0.0,0.0,0.0
2026-05-25 09:41:39.884986,1779716499.884986,939689,-365867,164539522,81881,151103,-34352,61,efd1fe00,0.0,0.0,0.0,0.0,0.0,0.0
2026-05-25 09:41:39.894098,1779716499.894098,939689,-365867,164539522,81881,151103,-34352,61,efd1fe00,0.0,0.0,0.0,0.0,0.0,0.0
2026-05-25 09:41:39.900861,1779716499.900861,961670,-369671,164513095,74129,104498,-7878,61,efd1fe00,0.0,0.0,0.0,0.0,0.0,0.0
2026-05-25 09:41:39.909697,1779716499.909697,961670,-369671,164513095,74129,104498,-7878,61,efd1fe00,0.0,0.0,0.0,0.0,0.0,0.0
2026-05-25 09:41:39.917338,1779716499.917338,1020962,-351346,164395320,48815,77220,11233,61,efd1fe00,0.0,0.0,0.0,0.0,0.0,0.0
2026-05-25 09:41:39.926553,1779716499.926553,1020962,-351346,164395320,48815,77220,11233,61,efd1fe00,0.0,0.0,0.0,0.0,0.0,0.0
2026-05-25 09:41:39.933328,1779716499.933328,1197184,-359516,164284405,12947,90706,-10467,61,efd1fe00,0.0,0.0,0.0,0.0,0.0,0.0
2026-05-25 09:41:39.945133,1779716499.945133,1197184,-359516,164284405,12947,90706,-10467,61,efd1fe00,0.0,0.0,0.0,0.0,0.0,0.0
2026-05-25 09:41:39.952245,1779716499.952245,1324809,-379119,164229839,-5143,151585,-20992,61,efd1fe00,0.0,0.0,0.0,0.0,0.0,0.0
2026-05-25 09:41:39.960477,1779716499.960477,1324809,-379119,164229839,-5143,151585,-20992,61,efd1fe00,0.0,0.0,0.0,0.0,0.0,0.0
2026-05-25 09:41:39.967963,1779716499.967963,1460440,-389533,164255422,-6525,218074,-9348,61,efd1fe00,0.0,0.0,0.0,0.0,0.0,0.0
2026-05-25 09:41:39.977363,1779716499.977363,1460440,-389533,164255422,-6525,218074,-9348,61,efd1fe00,0.0,0.0,0.0,0.0,0.0,0.0
2026-05-25 09:41:39.984055,1779716499.984055,1452203,-458070,164288907,26996,254853,7384,61,efd1fe00,0.0,0.0,0.0,0.0,0.0,0.0
2026-05-25 09:41:39.992831,1779716499.992831,1452203,-458070,164288907,26996,254853,7384,61,efd1fe00,0.0,0.0,0.0,0.0,0.0,0.0
2026-05-25 09:41:40.000247,1779716500.000247,1286768,-421004,164370258,82130,278101,15197,61,efd1fe00,0.0,0.0,0.0,0.0,0.0,0.0
2026-05-25 09:41:40.009392,1779716500.009392,1286768,-421004,164370258,82130,278101,15197,61,efd1fe00,0.0,0.0,0.0,0.0,0.0,0.0
2026-05-25 09:41:40.016548,1779716500.016548,950323,-478704,164374399,89938,259999,1155,61,efd1fe00,0.0,0.0,0.0,0.0,0.0,0.0
2026-05-25 09:41:40.024819,1779716500.024819,950323,-478704,164374399,89938,259999,1155,61,efd1fe00,0.0,0.0,0.0,0.0,0.0,0.0
2026-05-25 09:41:40.032535,1779716500.032535,729437,-527988,164500219,31116,223908,-19816,61,efd1fe00,0.0,0.0,0.0,0.0,0.0,0.0
2026-05-25 09:41:40.041917,1779716500.041917,729437,-527988,164500219,31116,223908,-19816,61,efd1fe00,0.0,0.0,0.0,0.0,0.0,0.0
2026-05-25 09:41:40.049849,1779716500.049849,631797,-569791,164504905,-51291,151115,-39280,61,efd1fe00,0.0,0.0,0.0,0.0,0.0,0.0
2026-05-25 09:41:40.058595,1779716500.058595,631797,-569791,164504905,-51291,151115,-39280,61,efd1fe00,0.0,0.0,0.0,0.0,0.0,0.0
2026-05-25 09:41:40.066232,1779716500.066232,888751,-657118,164521945,-88173,59858,-54700,61,efd1fe00,0.0,0.0,0.0,0.0,0.0,0.0
2026-05-25 09:41:40.075095,1779716500.075095,888751,-657118,164521945,-88173,59858,-54700,61,efd1fe00,0.0,0.0,0.0,0.0,0.0,0.0
2026-05-25 09:41:40.083378,1779716500.083378,1184194,-773878,164349324,-63488,48634,-69058,61,efd1fe00,0.0,0.0,0.0,0.0,0.0,0.0
2026-05-25 09:41:40.091797,1779716500.091797,1184194,-773878,164349324,-63488,48634,-69058,61,efd1fe00,0.0,0.0,0.0,0.0,0.0,0.0
2026-05-25 09:41:40.099151,1779716500.099151,1521076,-762612,164271436,33407,57383,-98335,61,efd1fe00,0.0,0.0,0.0,0.0,0.0,0.0
2026-05-25 09:41:40.108520,1779716500.108520,1521076,-762612,164271436,33407,57383,-98335,61,efd1fe00,0.0,0.0,0.0,0.0,0.0,0.0
2026-05-25 09:41:40.116196,1779716500.116196,1616050,-634605,164208053,124906,145963,-69681,61,efd1fe00,0.0,0.0,0.0,0.0,0.0,0.0
2026-05-25 09:41:40.126318,1779716500.126318,1616050,-634605,164208053,124906,145963,-69681,61,efd1fe00,0.0,0.0,0.0,0.0,0.0,0.0
2026-05-25 09:41:40.134766,1779716500.134766,1430056,-343641,164300263,198429,248751,-18165,61,efd1fe00,0.0,0.0,0.0,0.0,0.0,0.0
2026-05-25 09:41:40.144168,1779716500.144168,1430056,-343641,164300263,198429,248751,-18165,61,efd1fe00,0.0,0.0,0.0,0.0,0.0,0.0
2026-05-25 09:41:40.152245,1779716500.152245,1070365,-34850,164402679,198757,273215,13498,61,efd1fe00,0.0,0.0,0.0,0.0,0.0,0.0
2026-05-25 09:41:40.161645,1779716500.161645,1070365,-34850,164402679,198757,273215,13498,61,efd1fe00,0.0,0.0,0.0,0.0,0.0,0.0
2026-05-25 09:41:40.169153,1779716500.169153,742599,60636,164562648,162078,257048,11904,61,efd1fe00,0.0,0.0,0.0,0.0,0.0,0.0
2026-05-25 09:41:40.178148,1779716500.178148,742599,60636,164562648,162078,257048,11904,61,efd1fe00,0.0,0.0,0.0,0.0,0.0,0.0
2026-05-25 09:41:40.186002,1779716500.186002,676991,122177,164580893,69938,127185,-16603,61,efd1fe00,0.0,0.0,0.0,0.0,0.0,0.0
2026-05-25 09:41:40.194104,1779716500.194104,676991,122177,164580893,69938,127185,-16603,61,efd1fe00,0.0,0.0,0.0,0.0,0.0,0.0
2026-05-25 09:41:40.200655,1779716500.200655,913223,-96271,164528395,-11863,5241,-21403,61,efd1fe00,0.0,0.0,0.0,0.0,0.0,0.0
2026-05-25 09:41:40.208734,1779716500.208734,913223,-96271,164528395,-11863,5241,-21403,61,efd1fe00,0.0,0.0,0.0,0.0,0.0,0.0
2026-05-25 09:41:40.215928,1779716500.215928,1217950,-299362,164412184,-51351,7192,-22511,61,efd1fe00,0.0,0.0,0.0,0.0,0.0,0.0
2026-05-25 09:41:40.224637,1779716500.224637,1217950,-299362,164412184,-51351,7192,-22511,61,efd1fe00,0.0,0.0,0.0,0.0,0.0,0.0
2026-05-25 09:41:40.232322,1779716500.232322,1419307,-481880,164322105,-46701,53169,-11509,61,efd1fe00,0.0,0.0,0.0,0.0,0.0,0.0
2026-05-25 09:41:40.241793,1779716500.241793,1419307,-481880,164322105,-46701,53169,-11509,61,efd1fe00,0.0,0.0,0.0,0.0,0.0,0.0
2026-05-25 09:41:40.249634,1779716500.249634,1429614,-652227,164262099,-26163,175824,-6100,61,efd1fe00,0.0,0.0,0.0,0.0,0.0,0.0
2026-05-25 09:41:40.258642,1779716500.258642,1429614,-652227,164262099,-26163,175824,-6100,61,efd1fe00,0.0,0.0,0.0,0.0,0.0,0.0
2026-05-25 09:41:40.266291,1779716500.266291,1269481,-703019,164282626,-13934,289807,17319,61,efd1fe00,0.0,0.0,0.0,0.0,0.0,0.0
2026-05-25 09:41:40.274916,1779716500.274916,1269481,-703019,164282626,-13934,289807,17319,61,efd1fe00,0.0,0.0,0.0,0.0,0.0,0.0
